time,ax,ay,az,gx,gy,gz
142823,-10,-47,4129,-60,-13,-15
142825,-10,-82,4122,-58,-7,-14
142827,16,-81,4140,-57,-13,-17
142829,-15,-61,4097,-52,-14,-15
142831,-15,-86,4116,-54,-9,-15
142833,-39,-64,4144,-53,-7,-18
142835,0,-79,4166,-55,-11,-16
142837,-16,-77,4168,-52,-8,-5
142839,-116,259,4137,-149,-29,-10
142841,168,-400,4187,-61,-29,-24
142843,-2,-136,4175,32,-4,-26
142845,52,-120,4146,46,-1,-27
142847,-65,49,4170,3,-13,-24
142849,-3,-30,4160,-62,-11,-20
142851,-15,6,4139,-87,-26,-12
142972,12,-41,4123,-24,-6,-15
142974,3,-74,4127,-22,-5,-16
142976,-11,-61,4127,-31,-8,-19
142978,-5,-60,4153,-36,-9,-23
142980,-13,-59,4128,-42,-11,-21
142982,12,-75,4116,-49,-17,-19
142984,-40,-41,4157,-43,-14,-21
142986,-9,-77,4142,-33,-9,-18
142988,-5,-67,4126,-37,-14,-16
142990,-18,-47,4182,-44,-9,-21
142992,2,-49,4163,-37,-8,-18
142994,-7,-53,4146,-40,-10,-18
142996,-7,-55,4167,-40,-7,-17
142998,-24,-70,4127,-42,-8,-16
143000,-22,-45,4156,-44,-11,-15
143002,-17,-45,4151,-46,-10,-15
143004,-1,-61,4160,-48,-11,-16
143006,-14,-46,4107,-50,-10,-16
143008,-21,-69,4128,-50,-11,-15
143010,-16,-56,4152,-52,-10,-14
143012,-11,-23,4118,-49,-14,-28
143014,6,-58,4138,-56,-7,-15
143016,4,-60,4142,-55,-2,-18
143018,8,-59,4118,-54,-6,-19
143020,-4,-72,4133,-58,-11,-9
143022,-15,-59,4128,-50,-5,-12
143024,3,-59,4142,-57,-8,-8
143026,2,-53,4165,-59,-9,-16
143028,-10,-80,4115,-57,-8,-18
143030,-6,-65,4131,-52,-9,-20
143032,-9,-56,4109,-53,0,-12
143034,-9,-71,4136,-56,-6,-13
143036,25,-34,4141,-51,-10,-11
143038,14,-38,4123,-56,-11,-15
143040,-2,-59,4121,-56,2,-18
143042,9,-57,4160,-54,-1,-15
143044,-11,-62,4144,-55,0,-11
143046,-23,-51,4169,-50,1,-13
143048,15,-42,4168,-41,-2,-8
143050,2,-39,4163,-49,1,-20
143052,25,-66,4161,-43,9,-15
143054,17,-41,4146,-45,4,-11
143056,29,-58,4143,-51,5,-13
143058,25,-58,4157,-42,9,-17
143060,18,-58,4139,-36,10,-10
143062,-9,-71,4118,-41,11,-15
143064,23,-85,4139,-40,8,-10
143066,4,-61,4125,-38,6,-8
143068,18,-70,4135,-35,8,-17
143070,-21,-60,4166,-39,9,-11
143072,2,-78,4126,-36,13,-11
143074,5,-61,4116,-38,9,-12
143076,6,-62,4128,-33,12,-10
143078,-11,-79,4154,-35,8,-12
143080,-11,-72,4164,-30,6,-11
143082,-3,-86,4187,-30,10,-7
143084,5,-80,4143,-31,5,-15
143086,-2,-92,4141,-24,4,-22
143088,-18,-72,4155,-22,7,-12
143090,-15,-62,4139,-23,-1,-19
143092,-38,-58,4135,-21,-1,-16
143094,-22,-64,4121,-17,1,-13
143096,-34,-77,4152,-5,4,-16
143098,-44,-99,4162,2,0,-18
143100,-32,-79,4154,5,3,-18
143102,-8,-53,4137,-1,0,-21
143104,-26,-89,4155,9,2,-17
143106,-9,-79,4127,8,3,-17
143108,-2,-88,4144,13,4,-15
143110,-4,-96,4185,15,1,-23
143112,-3,-91,4173,20,3,-25
143114,-12,-77,4131,19,5,-20
143116,1,-84,4173,31,-2,-21
143118,-15,-61,4140,31,3,-23
143120,-21,-81,4133,33,1,-30
143122,-40,-48,4130,19,-2,-24
143124,-2,-71,4119,23,-3,-25
143126,11,-67,4144,17,-1,-31
143128,-20,-44,4130,12,1,-35
143130,1,-65,4150,9,-1,-34
143132,-4,-57,4132,4,-5,-37
143134,-16,-43,4155,-5,-4,-29
143136,1,-40,4156,-11,-9,-33
143138,3,-43,4126,-11,-8,-25
143140,-7,-56,4139,-3,-6,-31
143142,-17,-36,4126,-9,-6,-31
143144,-4,-47,4147,-22,-13,-28
143146,-1,-41,4130,-37,-10,-26
143148,20,-38,4145,-47,-7,-25
143150,-14,-33,4155,-57,-10,-20
143152,4,-39,4112,-56,-3,-25
143154,0,-53,4125,-58,-11,-21
143156,16,-64,4174,-58,-12,-23
143158,21,-50,4173,-61,-10,-21
143160,9,-40,4140,-63,-5,-22
143162,17,-74,4141,-60,-6,-21
143164,-3,-44,4136,-66,-14,-22
143166,15,-41,4129,-61,-10,-22
143168,44,-46,4208,-58,-5,-21
143170,-5,-37,4147,-61,-7,-19
143172,6,-58,4155,-64,-6,-21
143174,10,-51,4115,-59,-6,-24
143176,-2,-60,4117,-52,-5,-19
143178,1,-49,4146,-51,-4,-25
143180,-17,-34,4162,-48,-2,-23
143182,28,-66,4151,-34,-2,-23
143184,2,-67,4111,-30,-2,-26
143186,14,-61,4133,-12,2,-15
143188,-54,-100,4168,18,-10,-5
143190,31,-228,4223,106,1,1
143192,37,40,4110,67,17,-10
143194,-23,126,4103,-24,8,-23
143196,-17,6,4110,-28,3,-22
143198,-14,-11,4139,-36,1,-24
143200,-1,-59,4157,-25,-1,-25
143202,-31,-59,4153,-24,4,-22
143204,-40,-47,4150,-29,4,-26
143206,-36,-48,4152,-14,-7,-17
143208,-17,-93,4153,7,-6,-17
143210,7,-101,4212,34,4,-16
143212,6,-45,4151,25,3,-12
143214,-10,-4,4138,15,7,-18
143216,-9,-31,4155,3,5,-23
143218,-9,-55,4135,4,3,-26
143220,-11,-30,4108,-9,0,-25
143222,-34,-69,4173,7,-2,-20
143224,-19,-34,4152,8,-7,-20
143226,-15,-74,4191,24,-7,-20
143228,-32,-53,4169,35,-5,-24
143230,-8,-96,4159,45,-6,-22
143232,2,-71,4131,51,-8,-25
143234,9,-51,4164,41,2,-30
143236,-24,14,4113,16,-7,-33
143238,-2,-67,4139,27,-9,-33
143240,-10,-29,4111,22,1,-26
143242,-7,-56,4148,31,-2,-32
143244,-19,-46,4135,23,-2,-37
143246,-1,-43,4154,26,-2,-39
143248,11,-79,4140,54,1,-33
143250,-33,-23,4113,31,-3,-33
143252,-15,-20,4099,20,-4,-32
143254,-27,16,4114,-1,-10,-37
143256,-39,-38,4110,-7,-16,-26
143258,-37,-15,4097,-32,-13,-20
143260,-1,-38,4143,-48,-20,-21
143262,-10,-60,4155,-33,-21,-18
143264,15,-44,4156,-38,-19,-19
143266,-16,-27,4150,-43,-15,-22
143268,-4,-31,4170,-46,-17,-19
143270,-9,-30,4134,-55,-19,-17
143272,-30,-44,4133,-49,-19,-16
143274,4,-34,4132,-41,-15,-15
143276,-8,-15,4146,-57,-23,-14
143278,-4,-41,4148,-56,-15,-19
143280,-9,-42,4136,-62,-24,-14
143282,-30,-35,4122,-72,-18,-18
143284,21,-26,4142,-67,-16,-19
143286,9,-58,4150,-72,-19,-15
143288,-11,-63,4142,-57,-10,-15
143290,-4,-29,4135,-65,-9,-14
143292,2,-64,4136,-69,-15,-19
143294,-5,-56,4190,-56,-12,-15
143296,-10,-38,4140,-65,-11,-20
143298,2,-51,4176,-63,-8,-19
143300,-22,-42,4133,-48,-5,-19
143302,-13,-82,4165,-54,-10,-18
143304,-9,-41,4144,-51,-12,-25
143306,7,-50,4123,-54,-7,-16
143308,-18,-95,4175,-53,-9,-21
143310,-18,-41,4165,-53,-10,-22
143312,-5,-56,4137,-51,-6,-22
143314,-12,-60,4130,-52,-8,-20
143316,-17,-67,4137,-53,-8,-16
143318,-20,-101,4140,-45,-11,-19
143320,0,-36,4132,-55,-11,-25
143322,-7,-69,4152,-47,-9,-24
143324,3,-45,4184,-51,-6,-17
143326,-7,-25,4122,-54,-4,-23
143328,10,-85,4150,-44,-5,-22
143330,8,-66,4132,-48,-6,-26
143332,-26,-32,4153,-39,-10,-35
143334,-19,-44,4133,-41,-7,-31
143336,-34,-32,4139,-37,0,-32
143338,5,-55,4185,-30,-5,-41
143340,-23,-52,4106,-37,-2,-47
143342,8,-49,4159,-32,-1,-55
143344,-10,-37,4164,-25,-2,-76
143346,34,-7,4195,-13,-3,-122
143348,89,44,4172,10,1,-225
143350,124,149,4160,30,8,-379
143352,75,114,4128,36,5,-479
143354,71,33,4169,43,3,-534
143356,-36,-41,4156,34,0,-509
143358,-104,-196,4108,24,-11,-420
143360,-87,-175,4114,5,-11,-329
143362,-87,-183,4158,-1,-19,-221
143364,-69,-151,4132,-3,-10,-165
143366,-53,-107,4100,-22,-9,-119
143368,-43,-71,4111,-44,-21,-102
143370,-56,59,4067,-103,-29,-88
143372,-4,-84,4181,-72,-22,-90
143374,30,-91,4139,-33,-14,-88
143376,-11,-84,4160,-28,-15,-87
143378,-22,-39,4129,-45,-12,-93
143380,-35,-28,4106,-48,-19,-85
143382,-4,-53,4138,-52,-31,-83
143384,16,-20,4130,-58,-22,-76
143386,-23,-48,4135,-57,-19,-86
143388,-5,-34,4148,-52,-13,-75
143390,-3,-50,4171,-51,-22,-74
143392,-16,-51,4147,-47,-16,-65
143394,-7,-75,4154,-46,-20,-62
143396,-4,-51,4141,-46,-15,-63
143398,-7,-15,4116,-46,-16,-70
143400,-13,-30,4122,-54,-16,-72
143402,-3,-12,4129,-49,-14,-74
143404,5,-29,4177,-45,-16,-85
143406,19,-10,4138,-48,-11,-96
143408,9,-9,4144,-38,-15,-108
143410,17,-3,4152,-46,-14,-126
143412,27,9,4152,-40,-11,-151
143414,29,1,4113,-38,-14,-190
143416,40,46,4116,-28,-10,-246
143418,62,37,4151,-32,-10,-302
143420,31,-16,4125,-36,-13,-351
143422,10,9,4133,-33,-17,-386
143424,-74,-172,4112,-48,-13,-332
143426,-64,-232,4139,-49,-13,-202
143428,-18,-88,4155,-46,-7,-130
143430,-8,-81,4147,-46,-14,-105
143432,-30,-64,4172,-50,-8,-76
143434,-20,-87,4130,-59,-7,-70
143436,-2,-33,4092,-56,-10,-54
143438,-21,-23,4142,-56,-11,-50
143440,-18,-17,4167,-61,-9,-48
143442,-19,-47,4139,-62,-10,-42
143444,-25,-55,4129,-61,-5,-38
143446,-4,-53,4136,-68,-10,-40
143448,-11,-19,4136,-67,-9,-36
143450,-9,-32,4145,-68,-6,-39
143452,-23,-11,4147,-69,-10,-36
143454,-29,-37,4157,-69,-14,-37
143456,-2,-25,4133,-74,-14,-37
143458,-24,-52,4145,-74,-11,-33
143460,-5,-34,4150,-75,-12,-36
143462,-27,-27,4141,-82,-16,-35
143464,-10,-30,4133,-81,-12,-30
143466,-4,-47,4141,-86,-15,-32
143468,-31,-10,4127,-89,-17,-29
143470,-19,-29,4153,-91,-16,-28
143472,-10,-25,4132,-87,-12,-27
143474,-21,-73,4134,-87,-16,-27
143476,-19,-32,4125,-94,-18,-24
143478,-20,-48,4153,-101,-17,-18
143480,-16,-51,4163,-101,-14,-18
143482,-19,-32,4163,-107,-16,-22
143484,-20,-44,4112,-106,-25,-17
143486,-23,-33,4140,-109,-22,-19
143488,-21,-68,4156,-115,-21,-14
143490,-33,-46,4131,-105,-17,-20
143492,16,-65,4128,-111,-23,-15
143494,-32,-50,4112,-106,-24,-14
143496,-20,-48,4152,-109,-22,-17
143498,-8,-37,4143,-107,-20,-13
143500,15,-35,4134,-109,-26,-14
143502,-7,-52,4114,-114,-25,-20
143504,-31,-62,4177,-111,-22,-15
143506,16,-61,4131,-109,-22,-20
143508,12,-64,4140,-109,-24,-17
143510,6,-36,4139,-106,-21,-14
143512,-7,-67,4150,-101,-18,-12
143514,13,-68,4126,-103,-16,-9
143516,0,-46,4178,-103,-24,-6
143518,9,-36,4142,-116,-22,-12
143520,-25,-68,4156,-123,-21,-12
143522,-29,-48,4125,-114,-14,-15
143524,-10,-61,4171,-121,-22,-6
143526,16,-55,4122,-122,-17,-8
143528,-10,-73,4149,-131,-18,-14
143530,12,-44,4127,-137,-13,-3
143532,30,-6,4169,-144,-21,-6
143534,-17,-55,4147,-147,-16,-6
143536,-7,-57,4112,-138,-13,-13
143538,-8,-28,4130,-144,-13,-4
143540,-8,-22,4145,-153,-17,-3
143542,-22,-49,4101,-166,-15,-3
143544,-14,-49,4123,-172,-17,3
143546,3,-67,4169,-171,-18,1
143548,21,-77,4151,-166,-16,0
143550,-3,-58,4184,-162,-16,3
143552,12,-97,4153,-160,-15,4
143554,23,-82,4151,-151,-20,11
143556,15,-82,4135,-139,-16,7
143558,41,-101,4149,-128,-13,1
143560,-15,-106,4161,-109,-15,2
143562,-1,-99,4181,-85,-15,-2
143564,6,-102,4163,-70,-11,3
143566,-1,-105,4151,-56,-9,-10
143568,4,-82,4134,-41,-7,-12
143570,7,-90,4122,-32,-6,-13
143572,-22,-94,4136,-33,-11,-19
143574,-26,-101,4159,-27,-15,-13
143576,1,-73,4142,-27,-3,-12
143578,-12,-40,4156,-27,-9,-18
143580,0,-61,4148,-27,-3,-16
143582,-4,-96,4164,-17,-12,-19
143584,-4,-85,4154,-12,-8,-21
143586,-13,-79,4120,-5,-2,-14
143588,7,-84,4136,-6,-5,-14
143590,5,-68,4146,-6,-4,-18
143592,-27,-70,4125,-9,-3,-14
143594,-20,-57,4168,-11,0,-13
143596,-11,-67,4152,-21,-9,-17
143598,-2,-58,4140,-18,-8,-16
143600,-3,-60,4129,-22,-9,-19
143602,-11,-57,4100,-26,-8,-18
143604,-40,-75,4130,-29,-13,-17
143606,-4,-59,4140,-29,-19,-14
143608,-16,-51,4132,-29,-17,-23
143610,3,-41,4160,-33,-23,-16
143612,6,-46,4174,-33,-23,-23
143614,-20,-72,4135,-33,-20,-21
143616,-6,-51,4114,-30,-22,-15
143618,-25,-69,4120,-38,-20,-16
143620,7,-49,4128,-41,-20,-17
143622,-6,-65,4149,-37,-21,-20
143624,6,-93,4117,-36,-11,-21
143626,-10,-64,4122,-29,-20,-14
143628,25,-41,4125,-28,-28,-22
143630,26,-34,4103,-30,-24,-25
143632,-7,-52,4134,-37,-26,-24
143634,3,-43,4123,-39,-22,-22
143636,-4,-22,4114,-47,-27,-18
143638,-9,-44,4134,-54,-33,-21
143640,-43,-62,4127,-52,-26,-21
143642,9,-46,4152,-55,-29,-19
143644,-18,-63,4128,-58,-29,-23
143646,-9,-38,4154,-68,-32,-24
143648,-27,-43,4160,-71,-33,-24
143650,-14,-25,4148,-78,-33,-19
143652,-5,-28,4125,-83,-35,-27
143654,-8,-51,4120,-89,-33,-19
143656,-15,-81,4132,-91,-33,-24
143658,-1,-73,4151,-85,-33,-20
143660,8,-82,4136,-80,-32,-22
143662,7,-56,4154,-82,-24,-25
143664,-15,-40,4132,-80,-30,-20
143666,-2,-43,4145,-87,-33,-21
143668,-15,-28,4141,-87,-32,-24
143670,-13,-16,4106,-87,-31,-22
143672,-13,-38,4125,-90,-33,-21
143674,7,-71,4128,-94,-31,-22
143676,9,-68,4107,-97,-30,-17
143678,0,-100,4172,-87,-23,-21
143680,-15,-59,4152,-75,-19,-18
143682,-17,-62,4113,-67,-17,-18
143684,8,-32,4148,-68,-15,-18
143686,8,-56,4129,-60,-14,-19
143688,-11,-38,4120,-60,-8,-20
143690,8,-70,4143,-49,1,-15
143692,12,-68,4148,-41,2,-18
143694,-13,-57,4160,-44,-3,-16
143696,25,-100,4156,-39,5,-19
143698,2,-104,4156,-12,18,-18
143700,-4,-11,4096,-23,9,-14
143702,0,-71,4150,-13,21,-18
143704,-11,-52,4159,-20,18,-15
143706,18,-39,4162,-18,20,-9
143708,-17,-47,4109,-35,16,-6
143710,31,-82,4189,-42,27,-9
143712,-15,-60,4140,-35,25,-5
143714,43,-89,4155,-28,33,-5
143716,9,-98,4168,-17,43,-8
143718,5,-92,4133,-7,41,14
143720,-9,-90,4145,-15,38,22
143722,66,-190,4160,-22,38,48
143724,198,-340,4103,-159,-33,34
143726,1340,-1021,3999,-457,-138,-146
143728,689,-1032,4319,-261,-31,-187
143730,249,-392,4071,-217,-77,-192
143732,-39,-94,4140,-134,-98,-168
143734,0,14,4352,-181,103,-195
143736,-131,-163,4123,-157,4,-131
143738,-73,3,4080,-171,-13,-62
143740,127,-123,4083,-188,-8,-119
143742,182,-286,4175,-144,-18,-207
143744,114,-469,4112,-104,-77,-192
143746,16,-162,4246,-86,-62,-164
143748,76,-136,4082,-130,-24,-179
143750,-140,-89,4157,-81,-56,-125
143752,-70,134,4208,-87,-27,-171
143754,-126,-406,4160,-115,-235,-278
143756,624,-1401,3557,-861,-453,-1049
143758,1621,-720,5130,-412,164,-1351
143760,118,-179,3750,-94,62,-1008
143762,-969,-419,3931,-131,-147,-465
143764,-578,149,4195,-141,-72,-180
143766,-185,740,4243,-62,66,-41
143768,471,418,4005,-50,-83,-214
143770,416,-56,4118,-77,-134,-367
143772,-40,-264,4283,-78,-81,-336
143774,-39,-202,4168,-166,-208,-395
143776,285,-541,4004,-296,-294,-588
143778,464,-327,4427,-296,-112,-688
143780,278,-184,4135,-288,-85,-703
143782,76,124,4135,-243,-179,-670
143784,13,-94,4075,-329,-208,-527
143786,21,20,3912,-212,-302,-418
143788,216,250,4318,-132,-234,-353
143790,317,503,4117,-181,115,-300
143792,55,247,4068,-111,10,-242
143794,-52,121,4053,28,-338,-158
143796,-40,230,4212,40,-83,-132
143798,-230,223,4114,-118,23,-169
143800,-291,-70,4222,-223,37,-206
143802,-347,-99,4180,-288,13,-258
143804,-62,-76,4262,-372,-5,-374
143806,-36,125,4184,-361,155,-384
143808,-189,-5,4030,-371,-14,-268
143810,-155,114,4062,-312,-127,-186
143812,-306,233,4151,-204,-143,-104
143814,-171,329,4192,-234,-19,-52
143816,-126,318,4203,-286,54,-68
143818,-256,300,4135,-281,43,-44
143820,-311,177,4132,-249,28,-20
143822,-252,145,4093,-257,20,-40
143824,-307,67,4133,-246,43,7
143826,-254,104,4135,-239,62,30
143828,-5,155,4119,-265,57,-88
143830,-414,13,4158,-265,82,15
143832,-364,48,4174,-289,45,101
143834,-205,89,4137,-307,-2,99
143836,-161,12,4131,-321,-17,73
143838,-190,0,4221,-343,-6,87
143840,-182,-1,4178,-359,-29,108
143842,-202,14,4221,-371,-80,95
143844,-195,41,4208,-381,-112,87
143846,-161,-8,4168,-381,-165,59
143848,-200,-7,4183,-372,-215,24
143850,-174,-24,4203,-358,-276,8
143852,-205,-57,4169,-325,-347,2
143854,-180,-70,4238,-286,-420,2
143856,-157,-92,4200,-260,-470,-14
143858,-124,-112,4209,-235,-507,-40
143860,-154,-150,4261,-194,-549,-39
143862,-98,-198,4300,-151,-580,-27
143864,-184,-162,4285,-170,-573,47
143866,-30,-74,4245,-229,-501,127
143868,35,-13,4264,-265,-447,156
143870,66,-64,4214,-279,-393,155
143872,62,-124,4189,-298,-379,140
143874,62,-109,4175,-304,-362,134
143876,33,-142,4165,-294,-375,124
143878,20,-152,4203,-272,-405,124
143880,16,-145,4160,-286,-417,137
143882,-20,-112,4162,-287,-419,155
143884,63,-139,4203,-276,-435,138
143886,38,-158,4210,-272,-464,121
143888,51,-105,4181,-285,-479,112
143890,2,-71,4204,-330,-485,79
143892,-5,-54,4214,-362,-517,33
143894,-51,-59,4212,-360,-537,-8
143896,-39,-37,4151,-347,-541,-46
143898,19,-88,4144,-312,-536,-88
143900,39,-171,4136,-238,-544,-120
143902,75,-225,4188,-166,-515,-155
143904,98,-194,4173,-144,-501,-166
143906,114,-233,4142,-122,-482,-168
143908,96,-249,4142,-81,-461,-160
143910,78,-219,4207,-48,-442,-142
143912,121,-176,4125,-69,-415,-167
143914,130,-133,4059,-72,-395,-187
143916,93,-140,4098,-61,-388,-200
143918,38,-113,4127,-62,-393,-224
143920,52,-84,4112,-50,-401,-240
143922,28,-125,4142,-34,-417,-256
143924,45,-110,4184,-20,-424,-273
143926,47,-162,4176,-3,-422,-288
143928,59,-167,4172,6,-414,-302
143930,79,-153,4180,22,-400,-296
143932,133,-236,4186,39,-392,-301
143934,236,-349,4188,62,-391,-321
143936,284,-218,4254,-10,-438,-333
143938,201,-163,4291,-24,-480,-363
143940,43,-146,4245,-3,-438,-342
143942,-41,-97,4195,-7,-406,-313
143944,21,-126,4180,29,-391,-301
143946,48,-145,4174,76,-377,-284
143948,120,-156,4152,100,-366,-255
143950,147,-181,4180,106,-359,-218
143952,121,-188,4214,116,-343,-154
143954,157,-224,4271,138,-302,-94
143956,145,-245,4267,142,-226,-14
143958,183,-253,4303,135,-101,59
143960,152,-238,4318,140,-38,139
143962,137,-193,4389,172,-19,183
143964,125,-183,4380,179,3,195
143966,165,-59,4424,98,45,244
143968,116,-106,4420,73,69,260
143970,58,-195,4345,169,112,248
143972,59,-161,4354,209,151,254
143974,89,-135,4370,222,158,261
143976,124,-150,4357,266,170,266
143978,150,-140,4394,290,194,264
143980,153,-127,4426,286,214,265
143982,193,-222,4428,322,233,273
143984,222,-206,4538,340,245,299
143986,275,-187,4630,303,260,360
143988,203,-274,4682,297,263,398
143990,173,-368,4551,372,330,407
143992,70,-262,4511,412,406,393
143994,70,-207,4478,395,441,383
143996,127,-159,4446,381,492,374
143998,130,-151,4458,369,557,366
144000,208,-184,4392,376,643,376
144002,162,-97,4418,282,685,422
144004,135,-70,4441,222,690,448
144006,92,-139,4356,249,713,425
144008,79,-52,4354,236,722,393
144010,96,32,4297,172,756,387
144012,112,105,4283,94,792,382
144014,95,105,4248,73,830,349
144016,66,80,4203,77,873,301
144018,65,151,4154,33,886,253
144020,36,138,4142,-22,899,198
144022,59,101,4083,-4,978,109
144024,55,131,4070,-49,1035,64
144026,35,166,4117,-123,1068,15
144028,32,58,4136,-125,1095,-46
144030,72,71,4017,-101,1199,-97
144032,60,57,4068,-141,1252,-152
144034,37,36,4019,-139,1301,-191
144036,68,9,3977,-120,1380,-216
144038,68,-2,3985,-123,1454,-227
144040,57,20,3982,-133,1489,-231
144042,26,-14,4033,-141,1507,-229
144044,-41,-24,4042,-131,1524,-231
144046,-52,-28,4083,-128,1532,-223
144048,-121,-48,4081,-97,1548,-209
144050,-90,-29,4073,-56,1584,-190
144052,-72,-37,4072,-40,1627,-178
144054,-96,-10,4036,-30,1648,-166
144056,-89,12,4031,-14,1675,-174
144058,-108,-14,4056,-11,1683,-171
144060,-161,-16,4026,-4,1667,-178
144062,-164,-4,4030,0,1657,-190
144064,-164,-19,4048,14,1653,-195
144066,-160,-53,4062,39,1648,-198
144068,-191,-74,4105,71,1641,-200
144070,-151,-69,4100,109,1639,-181
144072,-135,-91,4073,133,1644,-165
144074,-131,-93,4092,143,1649,-153
144076,-151,-151,4104,161,1669,-155
144078,-126,-166,4117,179,1711,-146
144080,-111,-147,4096,208,1750,-133
144082,-191,-165,4084,239,1775,-119
144084,-176,-130,4087,253,1767,-114
144086,-164,-131,4114,258,1757,-111
144088,-201,-95,4107,260,1731,-101
144090,-238,-98,4135,264,1701,-95
144092,-255,-86,4115,272,1651,-82
144094,-257,-69,4168,261,1598,-71
144096,-293,-96,4204,261,1547,-60
144098,-295,-99,4219,269,1497,-64
144100,-321,-94,4322,275,1431,-66
144102,-348,-67,4345,269,1365,-73
144104,-350,-87,4349,272,1302,-91
144106,-348,-102,4396,272,1245,-111
144108,-371,-126,4394,298,1191,-112
144110,-341,-124,4409,306,1162,-118
144112,-349,-144,4370,298,1110,-109
144114,-320,-126,4303,296,1083,-111
144116,-295,-107,4289,290,1061,-108
144118,-288,-77,4306,271,1037,-107
144120,-286,-31,4265,257,1031,-105
144122,-324,20,4250,235,1021,-106
144124,-352,60,4207,222,1033,-109
144126,-359,111,4121,195,1040,-122
144128,-369,141,4100,156,1048,-131
144130,-368,97,4052,140,1056,-150
144132,-362,100,3956,122,1052,-176
144134,-335,103,3927,114,1053,-198
144136,-356,104,3860,110,1080,-223
144138,-362,140,3801,103,1099,-223
144140,-383,107,3813,105,1120,-238
144142,-371,73,3768,106,1148,-236
144144,-368,82,3776,98,1161,-238
144146,-385,83,3788,90,1158,-259
144148,-382,97,3812,60,1132,-288
144150,-388,46,3855,63,1108,-353
144152,-363,54,3878,47,1097,-406
144154,-388,55,3905,28,1084,-454
144156,-358,8,3917,24,1089,-484
144158,-338,-63,3955,19,1110,-506
144160,-282,-86,3990,29,1135,-526
144162,-334,-90,4032,35,1170,-532
144164,-306,-141,4074,48,1218,-528
144166,-305,-119,4071,60,1270,-522
144168,-325,-167,4068,79,1320,-506
144170,-344,-139,4079,107,1380,-472
144172,-331,-180,4090,133,1447,-440
144174,-353,-143,4048,156,1479,-414
144176,-342,-189,4025,181,1509,-381
144178,-303,-212,4054,204,1529,-345
144180,-319,-212,4029,230,1542,-326
144182,-328,-232,3991,255,1555,-293
144184,-338,-200,4009,282,1564,-264
144186,-319,-170,3988,315,1576,-224
144188,-333,-141,3986,360,1590,-188
144190,-372,-145,3925,404,1609,-153
144192,-396,-164,3926,443,1631,-116
144194,-395,-150,4009,478,1662,-72
144196,-432,-136,3942,512,1700,-31
144198,-437,-122,3987,546,1726,28
144200,-478,-120,4009,583,1742,90
144202,-468,-132,4045,633,1771,170
144204,-407,-141,4045,668,1789,207
144206,-397,-118,4028,702,1812,237
144208,-372,-148,4040,735,1846,265
144210,-355,-136,4015,752,1884,275
144212,-410,-131,4051,769,1930,282
144214,-439,-113,4111,781,1976,275
144216,-519,-107,4055,782,2024,279
144218,-528,-76,4095,786,2068,289
144220,-500,-62,4108,787,2120,298
144222,-545,-121,4134,806,2162,333
144224,-630,-115,4168,829,2185,375
144226,-581,-149,4145,870,2191,423
144228,-598,-117,4099,897,2174,461
144230,-567,-93,4067,926,2152,503
144232,-587,-50,4066,953,2116,539
144234,-583,-36,4035,957,2085,550
144236,-559,-9,4014,939,2051,561
144238,-567,26,4016,929,2019,553
144240,-603,85,3974,926,1967,551
144242,-643,92,3961,897,1915,535
144244,-683,111,3976,878,1860,524
144246,-714,154,3981,853,1817,505
144248,-698,145,3957,819,1782,484
144250,-706,172,3969,791,1736,456
144252,-704,167,3909,754,1693,421
144254,-680,141,3934,730,1672,387
144256,-689,142,3924,695,1659,361
144258,-684,130,3937,668,1676,331
144260,-674,108,3934,641,1705,303
144262,-722,123,3956,625,1744,271
144264,-752,115,3900,627,1756,256
144266,-771,167,3911,564,1750,247
144268,-746,203,3934,492,1743,218
144270,-731,214,3903,422,1735,201
144272,-710,266,3952,341,1729,179
144274,-703,233,3930,291,1725,151
144276,-693,194,3894,280,1728,114
144278,-763,190,3853,285,1704,79
144280,-724,162,3801,274,1667,31
144282,-729,151,3805,258,1637,-6
144284,-720,164,3796,229,1605,-46
144286,-728,197,3830,176,1576,-63
144288,-749,182,3868,129,1542,-68
144290,-829,187,3887,97,1515,-75
144292,-864,196,3914,43,1480,-50
144294,-853,136,3966,19,1454,-40
144296,-826,111,3953,17,1418,-36
144298,-817,101,3977,23,1389,-17
144300,-838,64,4013,39,1351,-19
144302,-809,55,3956,63,1310,-24
144304,-826,111,3919,75,1268,-33
144306,-824,144,3965,62,1238,-37
144308,-825,198,3954,44,1217,-40
144310,-838,163,3997,21,1217,-33
144312,-868,194,4004,-15,1238,-10
144314,-878,153,4004,-38,1263,20
144316,-909,102,4080,-51,1275,62
144318,-909,98,4014,-48,1255,90
144320,-775,64,4030,-63,1203,139
144322,-835,66,4036,-41,1167,176
144324,-907,111,3920,-26,1111,196
144326,-963,117,3927,-13,1108,201
144328,-932,148,3866,5,1044,208
144330,-921,163,3938,11,1052,187
144332,-928,144,3932,27,1059,158
144334,-944,145,3902,26,1032,132
144336,-933,138,3898,37,999,124
144338,-949,135,3955,48,1089,89
144340,-970,131,4004,74,1209,65
144342,-992,90,3955,81,1239,76
144344,-1019,110,3906,120,1221,84
144346,-985,129,3936,147,1242,97
144348,-1006,95,3938,177,1277,125
144350,-982,146,3968,201,1314,158
144352,-983,136,4017,232,1411,186
144354,-962,75,4012,229,1466,225
144356,-960,102,3960,240,1537,254
144358,-961,137,4007,244,1620,277
144360,-967,108,4006,248,1723,290
144362,-992,122,4045,244,1806,320
144364,-1116,93,4105,280,1896,306
144366,-1217,151,4096,328,1943,303
144368,-1247,89,4112,354,1973,310
144370,-1196,85,4158,380,2007,323
144372,-1201,47,4129,427,2031,339
144374,-1223,67,4130,460,2035,354
144376,-1202,101,4138,476,2043,350
144378,-1190,93,4145,487,2048,354
144380,-1181,98,4138,477,2042,356
144382,-1192,160,4122,478,2014,371
144384,-1214,109,4124,461,2009,378
144386,-1207,138,4125,450,2011,371
144388,-1218,119,4107,440,2012,357
144390,-1234,141,4144,423,2002,349
144392,-1204,93,4120,415,1985,315
144394,-1177,130,4191,412,1986,273
144396,-1146,75,4213,410,2020,241
144398,-1142,79,4160,438,2038,204
144400,-1150,129,4124,411,2032,159
144402,-1253,144,4092,374,1991,130
144404,-1243,133,4042,337,1963,113
144406,-1223,77,4016,291,1979,97
144408,-1125,103,3969,235,2030,87
144410,-1096,-23,4039,243,2112,69
144412,-1291,-5,4127,332,2111,82
144414,-1429,68,4105,378,2046,79
144416,-1510,127,4091,434,1998,88
144418,-1478,180,4066,488,1953,111
144420,-1454,176,3996,526,1942,135
144422,-1403,218,3986,527,1915,163
144424,-1352,235,3901,503,1883,189
144426,-1327,220,3930,497,1865,198
144428,-1354,179,3860,478,1838,216
144430,-1285,235,3823,453,1817,206
144432,-1312,237,3871,451,1798,206
144434,-1300,249,3871,454,1776,192
144436,-1343,215,3859,458,1764,165
144438,-1336,260,3835,454,1761,128
144440,-1357,248,3849,436,1764,108
144442,-1329,229,3831,406,1786,57
144444,-1319,269,3780,386,1815,27
144446,-1320,242,3778,372,1855,-3
144448,-1310,217,3776,337,1907,-44
144450,-1282,259,3769,319,1972,-77
144452,-1324,257,3729,315,2033,-98
144454,-1352,254,3766,317,2072,-109
144456,-1376,310,3751,310,2094,-114
144458,-1375,338,3745,264,2120,-119
144460,-1339,305,3672,254,2205,-120
144462,-1372,358,3636,240,2299,-119
144464,-1329,344,3645,206,2387,-129
144466,-1354,323,3620,196,2431,-132
144468,-1440,308,3669,202,2437,-127
144470,-1453,347,3653,192,2438,-121
144472,-1473,349,3660,194,2473,-93
144474,-1550,289,3741,233,2462,-71
144476,-1623,337,3698,249,2413,-40
144478,-1606,364,3631,217,2350,-5
144480,-1588,306,3634,213,2320,24
144482,-1577,328,3617,202,2304,57
144484,-1570,319,3626,171,2273,83
144486,-1560,336,3607,136,2254,111
144488,-1534,319,3631,106,2241,130
144490,-1518,305,3644,77,2237,172
144492,-1553,314,3696,46,2215,200
144494,-1568,280,3688,46,2197,212
144496,-1563,276,3707,62,2167,212
144498,-1600,265,3765,71,2139,212
144500,-1620,255,3808,89,2085,211
144502,-1580,213,3841,110,2030,192
144504,-1585,231,3874,116,2018,154
144506,-1582,319,3885,95,2015,122
144508,-1568,333,3884,76,2030,53
144510,-1596,342,3882,54,2077,-13
144512,-1588,365,3818,26,2119,-84
144514,-1617,340,3836,5,2153,-138
144516,-1635,273,3785,8,2184,-184
144518,-1712,263,3789,23,2204,-207
144520,-1793,307,3848,44,2167,-212
144522,-1819,341,3821,54,2133,-208
144524,-1824,339,3776,74,2107,-232
144526,-1893,395,3750,75,2070,-249
144528,-1824,449,3724,21,2048,-253
144530,-1773,409,3696,13,2036,-257
144532,-1792,413,3685,-24,2019,-240
144534,-1798,397,3671,-64,1988,-228
144536,-1780,357,3644,-72,1957,-221
144538,-1797,427,3626,-115,1908,-177
144540,-1798,357,3612,-144,1872,-152
144542,-1811,353,3624,-140,1859,-144
144544,-1814,307,3581,-144,1839,-130
144546,-1813,276,3551,-138,1828,-137
144548,-1787,233,3550,-130,1816,-133
144550,-1829,237,3554,-135,1807,-122
144552,-1855,268,3536,-161,1796,-95
144554,-1906,265,3539,-145,1802,-61
144556,-1877,281,3525,-138,1814,-25
144558,-1859,271,3538,-146,1845,18
144560,-1868,212,3582,-131,1875,37
144562,-1851,264,3606,-125,1898,79
144564,-1836,270,3624,-130,1905,108
144566,-1884,242,3630,-108,1935,120
144568,-1866,227,3628,-112,1973,129
144570,-1853,252,3634,-126,2008,135
144572,-1872,274,3656,-152,2055,123
144574,-1854,241,3649,-178,2095,116
144576,-1866,205,3585,-185,2136,100
144578,-1869,255,3636,-197,2165,90
144580,-1873,230,3603,-197,2197,77
144582,-1903,221,3597,-190,2229,54
144584,-1911,248,3644,-189,2269,35
144586,-1925,195,3592,-174,2306,32
144588,-1942,181,3624,-146,2338,0
144590,-1954,197,3626,-147,2375,-11
144592,-1921,226,3596,-152,2417,-19
144594,-1965,225,3619,-189,2449,-17
144596,-2019,263,3578,-209,2478,-22
144598,-2009,273,3517,-179,2555,-23
144600,-1958,239,3507,-146,2657,-19
144602,-1934,185,3508,-131,2741,-31
144604,-1929,176,3489,-99,2813,-63
144606,-1922,210,3476,-107,2853,-77
144608,-1971,256,3520,-133,2883,-100
144610,-2014,244,3545,-171,2922,-120
144612,-2025,255,3516,-191,2965,-138
144614,-2019,233,3501,-195,3033,-160
144616,-2051,219,3516,-200,3090,-153
144618,-2110,200,3620,-173,3139,-125
144620,-2181,236,3662,-134,3159,-90
144622,-2193,238,3583,-88,3188,-41
144624,-2192,227,3560,-72,3211,-13
144626,-2168,248,3514,-78,3226,11
144628,-2220,195,3536,-71,3209,35
144630,-2265,219,3557,-82,3176,53
144632,-2282,229,3565,-89,3137,52
144634,-2255,232,3527,-86,3113,52
144636,-2283,213,3528,-111,3079,66
144638,-2293,213,3566,-117,3051,82
144640,-2286,236,3544,-135,3012,95
144642,-2276,233,3503,-143,2988,107
144644,-2270,209,3443,-126,2982,109
144646,-2263,194,3447,-99,2983,114
144648,-2273,224,3407,-89,2999,108
144650,-2252,259,3372,-92,3013,107
144652,-2315,212,3354,-82,3019,118
144654,-2323,204,3338,-67,3017,118
144656,-2331,224,3360,-51,3025,117
144658,-2283,232,3283,-37,3050,109
144660,-2297,223,3313,-9,3069,95
144662,-2297,271,3276,8,3075,88
144664,-2242,270,3257,4,3125,74
144666,-2161,251,3195,28,3228,61
144668,-2073,271,3252,38,3344,58
144670,-2091,264,3212,44,3458,53
144672,-1777,226,3212,99,3697,97
144674,-2260,381,3121,105,3744,42
144676,-2415,399,3089,97,3751,-36
144678,-2547,271,3301,206,3792,-76
144680,-2580,460,3232,211,3750,-128
144682,-2656,405,3169,172,3726,-191
144684,-2669,382,3130,186,3707,-205
144686,-2609,371,3194,161,3715,-213
144688,-2495,298,3204,160,3760,-207
144690,-2613,270,3158,177,3777,-231
144692,-2485,229,3158,183,3798,-232
144694,-2712,262,3126,194,3739,-283
144696,-2733,237,3149,212,3676,-355
144698,-2652,203,3133,238,3683,-381
144700,-2603,265,3138,228,3688,-403
144702,-2642,204,3096,220,3682,-430
144704,-2698,191,3113,234,3630,-432
144706,-2725,208,3111,230,3589,-438
144708,-2769,172,3095,212,3563,-443
144710,-2841,190,3149,219,3492,-440
144712,-2901,148,3057,182,3399,-457
144714,-2870,123,3015,185,3351,-478
144716,-2828,135,2996,212,3291,-504
144718,-2818,185,2988,208,3225,-530
144720,-2765,198,3035,196,3189,-543
144722,-2750,243,2990,200,3165,-569
144724,-2734,226,3061,181,3138,-585
144726,-2696,235,3033,174,3121,-599
144728,-2707,221,2972,177,3114,-611
144730,-2803,222,2953,164,3089,-632
144732,-2754,255,2925,113,3057,-679
144734,-2703,244,2924,77,3059,-718
144736,-2722,259,2956,47,3076,-721
144738,-2720,240,2859,29,3076,-745
144740,-2749,246,2877,20,3097,-779
144742,-2811,248,2826,10,3100,-821
144744,-2821,236,2851,30,3096,-842
144746,-2867,254,2858,30,3085,-872
144748,-2879,241,2803,40,3080,-906
144750,-2854,285,2804,13,3071,-938
144752,-2853,294,2829,-28,3048,-964
144754,-2880,275,2824,-33,3042,-983
144756,-2847,243,2753,-43,3010,-1003
144758,-2849,281,2772,-78,2987,-1028
144760,-2808,274,2769,-102,2972,-1052
144762,-2850,262,2737,-114,2959,-1052
144764,-2875,194,2686,-120,2935,-924
144766,-2930,246,2700,-141,2940,-821
144768,-2986,277,2667,-155,2967,-776
144770,-2917,277,2681,-158,2984,-736
144772,-2854,234,2645,-144,2997,-681
144774,-2835,231,2662,-125,3010,-661
144776,-2791,203,2671,-121,3017,-652
144778,-2811,181,2629,-99,3026,-665
144780,-2826,196,2604,-98,3038,-688
144782,-2846,253,2646,-113,3051,-704
144784,-2870,215,2645,-127,3061,-717
144786,-2923,225,2643,-160,3065,-724
144788,-2901,205,2594,-212,3052,-752
144790,-2918,221,2614,-225,3069,-748
144792,-2919,162,2598,-237,3102,-750
144794,-2924,157,2642,-253,3101,-754
144796,-2968,125,2604,-256,3104,-757
144798,-2993,129,2561,-268,3084,-763
144800,-3044,148,2567,-271,3059,-768
144802,-3079,152,2553,-278,3021,-769
144804,-3041,144,2581,-294,3004,-776
144806,-3089,159,2597,-301,2983,-784
144808,-3095,129,2563,-301,2951,-781
144810,-3114,142,2567,-302,2920,-786
144812,-3175,166,2557,-309,2873,-781
144814,-3158,139,2559,-324,2839,-771
144816,-3192,115,2519,-335,2811,-759
144818,-3218,123,2520,-340,2770,-744
144820,-3225,95,2494,-334,2741,-730
144822,-3233,120,2542,-327,2733,-728
144824,-3261,141,2552,-321,2697,-739
144826,-3259,94,2526,-318,2660,-746
144828,-3272,89,2509,-323,2624,-775
144830,-3266,109,2495,-320,2587,-799
144832,-3317,126,2510,-331,2545,-823
144834,-3323,119,2514,-346,2514,-839
144836,-3316,99,2508,-348,2488,-850
144838,-3339,71,2547,-334,2477,-860
144840,-3306,80,2511,-326,2473,-875
144842,-3322,104,2493,-332,2481,-894
144844,-3318,69,2477,-327,2490,-910
144846,-3317,85,2420,-317,2505,-928
144848,-3291,92,2388,-311,2539,-957
144850,-3314,94,2406,-319,2566,-942
144852,-3286,69,2396,-313,2594,-889
144854,-3315,135,2386,-299,2666,-970
144856,-3295,117,2412,-305,2703,-1015
144858,-3258,70,2392,-291,2715,-1050
144860,-3218,109,2388,-279,2741,-1098
144862,-3304,46,2332,-263,2760,-1165
144864,-3279,30,2353,-255,2768,-1196
144866,-3271,37,2327,-255,2777,-1232
144868,-3293,25,2302,-255,2806,-1259
144870,-3305,33,2275,-252,2832,-1271
144872,-3308,46,2262,-253,2870,-1291
144874,-3306,50,2250,-259,2891,-1302
144876,-3348,34,2273,-268,2903,-1320
144878,-3406,27,2259,-264,2893,-1343
144880,-3383,10,2227,-254,2880,-1363
144882,-3366,-11,2259,-241,2907,-1379
144884,-3376,-16,2242,-222,2927,-1407
144886,-3423,-53,2192,-189,2954,-1457
144888,-3420,-61,2266,-151,2987,-1498
144890,-3429,-60,2251,-121,2987,-1537
144892,-3453,-123,2285,-125,2983,-1579
144894,-3477,-139,2320,-132,2990,-1613
144896,-3487,-164,2300,-136,3000,-1644
144898,-3513,-175,2316,-130,2996,-1675
144900,-3523,-181,2310,-129,2974,-1713
144902,-3489,-175,2286,-143,2969,-1739
144904,-3476,-209,2296,-139,2987,-1756
144906,-3475,-177,2219,-124,3006,-1768
144908,-3452,-166,2251,-120,3043,-1777
144910,-3459,-167,2184,-113,3107,-1746
144912,-3432,-108,2198,-120,3174,-1726
144914,-3446,-102,2116,-105,3222,-1688
144916,-3429,-78,2076,-91,3291,-1628
144918,-3385,-41,2020,-101,3382,-1578
144920,-3346,-70,1945,-74,3494,-1531
144922,-3265,7,1883,-60,3658,-1467
144924,-3292,1,1895,-47,3758,-1442
144926,-3275,-26,1862,-6,3887,-1404
144928,-3260,-43,1840,66,4073,-1361
144930,-3200,9,1817,140,4287,-1291
144932,-3141,-14,1738,200,4541,-1203
144934,-3105,20,1713,243,4840,-1112
144936,-3210,30,1761,253,5093,-1041
144938,-3346,-10,1784,286,5288,-986
144940,-3416,21,1776,300,5482,-918
144942,-3437,6,1802,323,5663,-838
144944,-3548,-73,1753,384,5782,-740
144946,-3652,-114,1767,408,5863,-656
144948,-3625,-94,1764,376,5930,-581
144950,-3555,-83,1667,338,6037,-509
144952,-3688,-74,1670,275,6137,-421
144954,-3746,-82,1606,244,6151,-372
144956,-3764,-106,1611,229,6151,-324
144958,-3754,-126,1629,191,6146,-267
144960,-3775,-133,1614,163,6162,-192
144962,-3780,-141,1499,123,6145,-148
144964,-3856,-171,1452,95,6089,-116
144966,-3922,-182,1489,38,6032,-81
144968,-3979,-235,1450,3,5935,-50
144970,-4036,-225,1460,-7,5849,-21
144972,-4053,-260,1417,-37,5787,29
144974,-4037,-246,1405,-61,5702,61
144976,-4047,-281,1408,-104,5619,90
144978,-4065,-330,1351,-124,5512,131
144980,-4106,-354,1293,-151,5352,156
144982,-4117,-401,1325,-157,5178,209
144984,-4094,-319,1292,-190,5073,240
144986,-4125,-417,1310,-219,4966,264
144988,-4129,-435,1282,-208,4832,287
144990,-4073,-384,1293,-219,4695,300
144992,-4118,-306,1193,-258,4581,304
144994,-3996,-386,1184,-252,4450,277
144996,-3965,-342,1169,-251,4309,243
144998,-3998,-330,1112,-287,4162,189
145000,-4050,-326,1131,-328,4007,131
145002,-4065,-351,1129,-337,3900,108
145004,-4072,-322,1099,-330,3799,101
145006,-4128,-327,1151,-350,3697,92
145008,-4167,-366,1103,-353,3603,79
145010,-4141,-378,1072,-357,3500,60
145012,-4156,-381,1082,-375,3377,44
145014,-4204,-373,1023,-384,3286,13
145016,-4156,-396,1003,-366,3179,-17
145018,-4142,-433,1006,-337,3084,-51
145020,-4139,-383,1015,-344,2954,-89
145022,-4131,-390,1032,-335,2840,-131
145024,-4129,-366,996,-305,2728,-160
145026,-4124,-303,981,-280,2607,-208
145028,-4096,-291,931,-269,2504,-238
145030,-4070,-282,876,-267,2401,-266
145032,-4081,-271,886,-249,2290,-303
145034,-4070,-286,894,-207,2192,-334
145036,-4022,-263,823,-161,2102,-363
145038,-4047,-189,844,-179,2014,-377
145040,-4026,-195,798,-188,1923,-395
145042,-3988,-202,836,-194,1844,-414
145044,-3964,-177,775,-189,1799,-390
145046,-4000,-158,703,-156,1743,-377
145048,-3968,-158,732,-165,1705,-355
145050,-3965,-155,785,-175,1684,-317
145052,-3926,-171,714,-156,1684,-269
145054,-3910,-143,676,-167,1694,-229
145056,-3886,-140,691,-171,1698,-176
145058,-3894,-159,720,-170,1714,-129
145060,-3852,-138,665,-173,1727,-86
145062,-3858,-142,670,-190,1756,-46
145064,-3809,-134,654,-163,1811,-6
145066,-3765,-121,675,-164,1855,27
145068,-3788,-91,645,-160,1901,61
145070,-3754,-88,668,-140,1952,88
145072,-3757,-65,668,-147,2000,114
145074,-3738,-55,650,-137,2042,139
145076,-3732,-70,587,-122,2099,177
145078,-3723,-7,572,-136,2157,202
145080,-3739,-40,581,-147,2203,228
145082,-3751,-67,567,-120,2282,278
145084,-3697,-48,612,-154,2340,331
145086,-3698,-102,611,-163,2416,390
145088,-3725,-98,611,-181,2498,443
145090,-3739,-147,642,-156,2597,496
145092,-3770,-176,591,-133,2677,552
145094,-3812,-150,619,-149,2737,597
145096,-3811,-200,590,-128,2798,649
145098,-3818,-182,567,-127,2852,709
145100,-3806,-219,545,-113,2912,764
145102,-3855,-179,488,-73,2979,838
145104,-3848,-185,546,-76,3008,901
145106,-3809,-220,556,-71,3044,967
145108,-3774,-161,555,-59,3076,1037
145110,-3868,-124,462,-67,3090,1081
145112,-3902,-102,437,-54,3090,1116
145114,-3917,-67,448,-51,3086,1134
145116,-3882,-58,417,-43,3078,1167
145118,-3927,-58,346,-52,3051,1185
145120,-3978,-87,395,-83,3020,1186
145122,-3961,-62,355,-112,2963,1195
145124,-3995,-62,339,-118,2887,1198
145126,-4010,-60,284,-134,2812,1195
145128,-4015,-44,259,-154,2741,1180
145130,-4034,-59,266,-169,2659,1181
145132,-4103,-35,279,-205,2557,1174
145134,-4110,-59,246,-216,2495,1163
145136,-4109,-19,256,-258,2428,1150
145138,-4093,-26,250,-261,2340,1141
145140,-4091,-40,281,-247,2270,1121
145142,-4116,-20,255,-243,2214,1100
145144,-4150,-8,277,-252,2163,1055
145146,-4160,-7,262,-240,2116,1007
145148,-4181,-47,249,-237,2063,976
145150,-4169,-61,283,-218,2010,946
145152,-4172,-34,290,-207,1952,905
145154,-4176,-75,255,-202,1889,875
145156,-4167,-74,291,-186,1809,812
145158,-4162,-120,250,-152,1706,773
145160,-4175,-78,253,-126,1601,701
145162,-4161,-1,232,-171,1486,519
145164,-4162,-33,296,-159,1411,418
145166,-4181,148,320,-174,1351,226
145168,-4174,52,283,-200,1307,57
145170,-4219,-27,305,-150,1253,25
145172,-4251,-15,223,-120,1199,32
145174,-4269,-45,223,-125,1154,28
145176,-4296,-34,220,-127,1133,21
145178,-4291,-61,245,-113,1094,10
145180,-4286,-44,224,-112,1048,12
145182,-4282,-34,203,-97,1003,12
145184,-4231,14,164,-76,957,0
145186,-4188,83,172,-70,938,-10
145188,-4126,132,167,-74,942,-19
145190,-4098,172,151,-86,963,-13
145192,-4023,188,138,-120,997,9
145194,-3974,193,97,-136,1033,28
145196,-3969,235,78,-152,1079,58
145198,-3950,242,103,-171,1130,92
145200,-3935,198,111,-169,1178,107
145202,-3895,260,71,-211,1202,111
145204,-3840,244,71,-247,1230,122
145206,-3851,227,65,-275,1257,112
145208,-3798,274,108,-306,1278,98
145210,-3806,224,100,-316,1287,84
145212,-3841,223,66,-317,1289,58
145214,-3881,180,67,-352,1266,24
145216,-3908,171,73,-369,1241,-2
145218,-3929,164,45,-388,1227,-43
145220,-3942,145,43,-405,1208,-76
145222,-3922,147,74,-428,1197,-117
145224,-3966,161,85,-450,1198,-133
145226,-3959,147,97,-463,1202,-146
145228,-3984,117,77,-496,1208,-168
145230,-3996,93,99,-515,1208,-170
145232,-4025,46,120,-534,1206,-181
145234,-4044,-9,99,-541,1191,-188
145236,-4049,-50,92,-560,1171,-188
145238,-4089,-95,44,-563,1126,-191
145240,-4105,-142,74,-553,1061,-201
145242,-4147,-204,51,-542,973,-208
145244,-4191,-247,46,-507,847,-205
145246,-4282,-291,-3,-448,675,-225
145248,-4316,-292,-2,-381,504,-246
145250,-4344,-313,-32,-310,333,-261
145252,-4340,-342,-47,-222,121,-265
145254,-4351,-366,-36,-163,-3,-261
145256,-4334,-355,-60,-97,-142,-264
145258,-4292,-390,-54,-29,-294,-267
145260,-4269,-384,-25,33,-435,-275
145262,-4234,-387,-9,99,-581,-280
145264,-4197,-337,-11,163,-733,-290
145266,-4168,-342,-3,227,-867,-298
145268,-4127,-259,-31,277,-1003,-308
145270,-4104,-228,-22,327,-1117,-327
145272,-4087,-262,45,387,-1234,-349
145274,-4050,-204,83,425,-1348,-379
145276,-4006,-132,36,426,-1453,-418
145278,-3951,-66,15,422,-1522,-440
145280,-3887,-59,48,412,-1585,-475
145282,-3865,-44,-1,394,-1623,-506
145284,-3855,-22,32,386,-1637,-519
145286,-3842,0,37,370,-1642,-531
145288,-3789,-12,68,353,-1628,-532
145290,-3770,21,38,341,-1589,-519
145292,-3780,-6,-10,336,-1531,-499
145294,-3780,79,14,331,-1460,-473
145296,-3740,72,60,315,-1395,-434
145298,-3759,69,-7,315,-1331,-376
145300,-3739,42,20,296,-1263,-333
145302,-3734,59,57,285,-1210,-306
145304,-3728,6,68,291,-1151,-274
145306,-3726,13,78,293,-1100,-251
145308,-3739,24,89,304,-1061,-225
145310,-3737,-4,34,319,-1039,-222
145312,-3797,36,74,330,-1036,-212
145314,-3813,33,54,326,-1035,-213
145316,-3866,31,144,316,-1026,-210
145318,-3870,21,153,301,-998,-202
145320,-3873,-13,190,272,-947,-186
145322,-3917,-55,207,246,-903,-157
145324,-3933,-51,234,226,-861,-125
145326,-3938,-74,284,217,-828,-100
145328,-3995,-98,273,204,-791,-61
145330,-4008,-76,294,174,-753,-37
145332,-4036,-6,304,130,-725,-20
145334,-4026,40,337,83,-683,-17
145336,-3973,66,394,37,-636,-36
145338,-3942,65,470,-6,-575,-82
145340,-3902,28,491,-43,-499,-159
145342,-3642,118,499,-107,-416,-336
145344,-3510,144,509,-154,-375,-532
145346,-3041,300,496,-212,-413,-904
145348,-2623,591,164,-310,-684,-1496
145350,-3209,453,347,-281,-936,-1765
145352,-3627,274,492,-226,-896,-1763
145354,-3759,175,499,-245,-677,-1720
145356,-3874,137,371,-323,-456,-1728
145358,-4007,151,284,-427,-338,-1758
145360,-4098,114,245,-506,-295,-1780
145362,-4193,-76,287,-503,-268,-1765
145364,-4277,-107,264,-515,-283,-1805
145366,-4375,-217,320,-532,-361,-1886
145368,-4470,-276,285,-553,-495,-1954
145370,-4557,-369,306,-560,-673,-1998
145372,-4597,-484,241,-537,-984,-2056
145374,-4602,-532,266,-545,-1160,-2098
145376,-4688,-698,447,-533,-1251,-2089
145378,-4736,-833,605,-503,-1272,-2025
145380,-4739,-900,677,-470,-1225,-1918
145382,-4770,-950,744,-446,-1123,-1798
145384,-4819,-973,722,-423,-1013,-1682
145386,-4796,-1004,723,-398,-912,-1567
145388,-4769,-862,647,-379,-826,-1477
145390,-4751,-752,576,-369,-765,-1411
145392,-4677,-659,518,-355,-706,-1342
145394,-4629,-571,427,-348,-649,-1280
145396,-4532,-461,384,-346,-599,-1212
145398,-4506,-367,313,-346,-555,-1124
145400,-4486,-268,262,-359,-513,-1019
145402,-4300,-112,221,-394,-461,-925
145404,-4225,-72,224,-422,-429,-884
145406,-4133,38,215,-437,-398,-868
145408,-3999,104,162,-445,-376,-874
145410,-4059,129,28,-402,-399,-928
145412,-4046,150,26,-372,-437,-972
145414,-3996,173,39,-308,-461,-1009
145416,-3935,156,44,-256,-462,-1040
145418,-3987,150,38,-230,-463,-1043
145420,-3962,126,36,-191,-473,-1036
145422,-3946,109,-3,-185,-440,-1023
145424,-3898,49,102,-160,-382,-981
145426,-3899,61,78,-141,-327,-941
145428,-3909,10,126,-147,-275,-870
145430,-3889,-37,62,-139,-256,-745
145432,-3868,-140,47,-117,-253,-558
145434,-3883,-187,31,-81,-257,-461
145436,-3863,-196,-20,-53,-279,-357
145438,-3854,-199,-4,-25,-307,-240
145440,-3865,-275,-47,18,-336,-168
145442,-3880,-273,-13,57,-397,-102
145444,-3771,-265,71,83,-455,-50
145446,-3724,-290,104,113,-512,-19
145448,-3703,-280,126,143,-606,-26
145450,-3681,-298,89,200,-711,-51
145452,-3721,-270,81,237,-843,-73
145454,-3717,-245,108,266,-971,-95
145456,-3706,-274,119,282,-1072,-121
145458,-3718,-304,160,301,-1174,-165
145460,-3644,-332,217,318,-1255,-226
145462,-3675,-360,306,317,-1321,-293
145464,-3655,-349,332,332,-1337,-334
145466,-3692,-334,372,339,-1330,-380
145468,-3756,-332,413,347,-1295,-432
145470,-3752,-346,446,367,-1267,-514
145472,-3772,-329,452,390,-1249,-606
145474,-3776,-330,434,402,-1228,-705
145476,-3862,-296,429,407,-1156,-830
145478,-4061,-275,598,397,-985,-980
145480,-4204,-268,693,367,-727,-1082
145482,-4309,-344,724,329,-460,-1161
145484,-4372,-448,739,294,-254,-1205
145486,-4393,-556,648,260,-170,-1237
145488,-4415,-601,587,251,-163,-1262
145490,-4413,-645,567,261,-180,-1279
145492,-4383,-639,608,282,-204,-1337
145494,-4371,-597,625,290,-204,-1392
145496,-4308,-589,686,298,-175,-1441
145498,-4247,-582,741,299,-111,-1497
145500,-4255,-597,706,289,-61,-1540
145502,-4210,-655,737,284,-17,-1578
145504,-4202,-715,714,284,21,-1595
145506,-4178,-733,690,294,38,-1601
145508,-4186,-781,666,291,35,-1588
145510,-4176,-743,679,266,36,-1566
145512,-4104,-712,711,222,54,-1539
145514,-4016,-658,739,166,104,-1515
145516,-3967,-578,734,109,189,-1488
145518,-3904,-517,744,66,280,-1467
145520,-3893,-521,676,27,350,-1454
145522,-3986,-502,607,-16,402,-1409
145524,-4050,-490,596,-36,418,-1377
145526,-4090,-547,594,-58,469,-1341
145528,-4105,-566,616,-96,530,-1295
145530,-4113,-628,646,-124,609,-1252
145532,-4096,-641,694,-164,707,-1212
145534,-4068,-697,707,-219,805,-1162
145536,-4060,-736,760,-269,897,-1094
145538,-4085,-770,738,-318,977,-1017
145540,-4074,-795,684,-370,1027,-917
145542,-4101,-779,681,-397,1081,-837
145544,-4136,-776,628,-422,1124,-762
145546,-4151,-790,587,-440,1144,-709
145548,-4071,-778,607,-471,1148,-668
145550,-4055,-744,604,-495,1164,-642
145552,-4013,-726,551,-537,1165,-623
145554,-4009,-736,567,-548,1159,-615
145556,-3997,-688,528,-571,1156,-612
145558,-3940,-712,515,-598,1140,-585
145560,-3994,-702,481,-627,1122,-547
145562,-3989,-705,443,-650,1092,-509
145564,-4014,-715,413,-657,1065,-471
145566,-4034,-731,384,-649,1027,-450
145568,-4029,-724,378,-642,986,-435
145570,-4007,-722,413,-624,951,-436
145572,-4000,-707,370,-611,931,-438
145574,-4002,-705,413,-596,930,-451
145576,-3955,-688,380,-583,930,-461
145578,-3950,-648,391,-580,930,-457
145580,-3953,-610,325,-574,916,-468
145582,-3933,-577,337,-570,888,-487
145584,-3899,-566,336,-565,863,-508
145586,-3857,-524,294,-564,838,-549
145588,-3790,-452,299,-555,819,-624
145590,-3804,-419,298,-553,804,-712
145592,-3776,-370,278,-535,785,-800
145594,-3803,-339,224,-522,760,-913
145596,-3819,-354,204,-511,733,-1028
145598,-3835,-383,189,-509,692,-1122
145600,-3852,-435,196,-490,667,-1206
145602,-3890,-492,158,-479,648,-1261
145604,-3895,-538,168,-463,636,-1314
145606,-3934,-557,172,-449,619,-1345
145608,-3929,-584,180,-427,616,-1362
145610,-3912,-592,162,-397,590,-1390
145612,-3896,-607,122,-339,538,-1432
145614,-3878,-622,146,-319,511,-1466
145616,-3920,-610,133,-271,466,-1505
145618,-3892,-618,127,-249,419,-1552
145620,-3936,-632,143,-228,381,-1592
145622,-3935,-644,128,-204,335,-1640
145624,-3956,-610,144,-186,298,-1692
145626,-3959,-612,136,-177,272,-1724
145628,-3950,-632,137,-159,257,-1759
145630,-3969,-599,110,-149,232,-1788
145632,-3968,-623,64,-133,197,-1806
145634,-3946,-634,100,-117,161,-1831
145636,-3969,-666,104,-87,111,-1849
145638,-3940,-677,101,-71,73,-1878
145640,-3693,-579,167,-2,-61,-2023
145642,-3333,-317,179,128,-201,-2370
145644,-3267,-310,267,186,-164,-2578
145646,-3274,-366,285,207,-45,-2745
145648,-3454,-566,242,197,66,-2793
145650,-3495,-714,309,224,194,-2796
145652,-3507,-811,322,244,280,-2780
145654,-3533,-956,209,243,276,-2703
145656,-3629,-1042,138,227,189,-2598
145658,-3687,-1058,123,208,66,-2468
145660,-3700,-1064,118,180,-33,-2348
145662,-3698,-1038,199,173,-83,-2250
145664,-3712,-1014,255,163,-82,-2180
145666,-3721,-959,308,143,-64,-2151
145668,-3770,-921,307,116,-12,-2126
145670,-3791,-966,298,119,41,-2120
145672,-3901,-1012,317,121,119,-2113
145674,-4017,-1035,318,128,175,-2101
145676,-4068,-1065,319,139,261,-2070
145678,-4184,-1100,292,150,360,-2026
145680,-4280,-1109,299,147,460,-1966
145682,-4362,-1162,277,135,561,-1894
145684,-4427,-1155,297,106,641,-1823
145686,-4484,-1171,236,92,691,-1752
145688,-4488,-1151,202,75,680,-1698
145690,-4497,-1044,83,66,525,-1699
145692,-4590,-858,-303,102,22,-1784
145694,-4610,-626,-803,167,-763,-1917
145696,-4569,-510,-975,285,-1442,-2002
145698,-4084,-549,-98,365,-1380,-2003
145700,-4044,-605,298,362,-1042,-2000
145702,-3992,-700,287,316,-694,-2060
145704,-3933,-811,271,306,-532,-2068
145706,-3878,-850,350,285,-349,-2064
145708,-4068,-878,-109,273,-431,-2064
145710,-3875,-990,49,278,-459,-2046
145712,-3837,-980,111,245,-531,-2035
145714,-3719,-929,141,206,-610,-2055
145716,-3528,-952,291,147,-554,-2056
145718,-3613,-906,195,77,-568,-2053
145720,-3416,-946,380,0,-485,-2030
145722,-3487,-935,228,-80,-471,-1998
145724,-3373,-1037,242,-121,-450,-1961
145726,-3455,-1017,135,-188,-537,-1931
145728,-3567,-1080,205,-193,-721,-1882
145730,-3595,-1200,258,-211,-845,-1845
145732,-3768,-1334,440,-253,-1208,-1856
145734,-3760,-1438,556,-275,-1283,-1854
145736,-3871,-1515,767,-345,-1313,-1866
145738,-3758,-1614,886,-446,-1302,-1860
145740,-3657,-1646,947,-589,-1186,-1888
145742,-3368,-1821,1003,-702,-997,-1921
145744,-3348,-1811,1047,-761,-817,-1909
145746,-3400,-1704,1042,-778,-612,-1839
145748,-3465,-1535,881,-806,-419,-1747
145750,-3567,-1385,738,-816,-256,-1681
145752,-3654,-1230,509,-803,-148,-1603
145754,-3743,-1149,319,-778,-80,-1535
145756,-3845,-1077,162,-728,-41,-1454
145758,-3887,-1058,109,-673,-7,-1366
145760,-3911,-1115,86,-602,38,-1289
145762,-3924,-1109,85,-526,96,-1194
145764,-3931,-1223,118,-465,136,-1133
145766,-3898,-1279,207,-440,207,-1043
145768,-3908,-1359,265,-401,319,-956
145770,-3875,-1369,53,-391,258,-908
145772,-3881,-1352,-9,-362,75,-885
145774,-3828,-1296,-80,-329,-169,-890
145776,-3697,-1170,-191,-301,-512,-961
145778,-3549,-1100,-131,-268,-857,-1071
145780,-3367,-1100,188,-272,-977,-1150
145782,-3310,-1161,449,-282,-862,-1225
145784,-3275,-1193,506,-307,-669,-1308
145786,-3336,-1214,474,-327,-500,-1401
145788,-3395,-1220,392,-342,-364,-1511
145790,-3468,-1262,314,-362,-281,-1610
145792,-3549,-1285,298,-377,-232,-1737
145794,-3627,-1313,244,-382,-238,-1798
145796,-3634,-1371,220,-386,-251,-1854
145798,-3659,-1363,246,-380,-276,-1923
145800,-3681,-1363,248,-362,-282,-1983
145802,-3695,-1412,278,-356,-295,-2034
145804,-3708,-1423,285,-348,-308,-2068
145806,-3703,-1408,310,-341,-314,-2120
145808,-3683,-1405,352,-328,-306,-2176
145810,-3653,-1452,376,-315,-275,-2245
145812,-3686,-1469,349,-307,-260,-2303
145814,-3714,-1489,375,-296,-235,-2360
145816,-3673,-1541,388,-274,-216,-2398
145818,-3701,-1540,399,-257,-194,-2442
145820,-3691,-1544,300,-236,-183,-2494
145822,-3671,-1516,327,-200,-193,-2571
145824,-3618,-1508,309,-174,-204,-2616
145826,-3625,-1506,314,-148,-211,-2659
145828,-3658,-1505,276,-124,-214,-2688
145830,-3636,-1582,323,-118,-202,-2685
145832,-3650,-1603,328,-118,-180,-2666
145834,-3675,-1628,332,-125,-149,-2635
145836,-3713,-1658,292,-117,-125,-2583
145838,-3724,-1698,327,-118,-118,-2533
145840,-3715,-1737,302,-113,-98,-2489
145842,-3693,-1746,339,-119,-80,-2450
145844,-3703,-1803,397,-114,-67,-2422
145846,-3715,-1824,441,-116,-38,-2395
145848,-3736,-1825,447,-109,18,-2382
145850,-3741,-1834,475,-110,81,-2375
145852,-3770,-1820,443,-119,180,-2370
145854,-3758,-1786,515,-129,244,-2384
145856,-3772,-1805,498,-140,310,-2391
145858,-3739,-1805,501,-133,386,-2404
145860,-3769,-1811,492,-133,439,-2429
145862,-3794,-1824,466,-112,477,-2463
145864,-3804,-1839,443,-102,505,-2493
145866,-3780,-1824,456,-80,556,-2516
145868,-3796,-1756,433,-96,598,-2506
145870,-3777,-1758,403,-122,647,-2514
145872,-3797,-1766,401,-144,693,-2526
145874,-3818,-1817,396,-139,734,-2553
145876,-3871,-1800,424,-156,782,-2575
145878,-3859,-1858,421,-178,822,-2594
145880,-3770,-1935,409,-166,870,-2586
145882,-3749,-1970,350,-182,955,-2564
145884,-3743,-1983,354,-175,1001,-2542
145886,-3775,-1896,330,-200,1010,-2511
145888,-3720,-1925,319,-238,1018,-2495
145890,-3696,-1929,272,-210,1017,-2519
145892,-3717,-1936,299,-201,964,-2551
145894,-3664,-1923,279,-197,917,-2578
145896,-3609,-2055,274,-156,879,-2605
145898,-3599,-1974,288,-82,884,-2579
145900,-3646,-1998,287,-108,855,-2549
145902,-3646,-1937,268,-118,855,-2516
145904,-3660,-1947,273,-153,824,-2498
145906,-3603,-1971,209,-121,804,-2470
145908,-3610,-2045,201,-78,744,-2481
145910,-3593,-2085,144,-18,671,-2499
145912,-3589,-1994,176,35,551,-2500
145914,-3621,-1950,204,36,480,-2523
145916,-3558,-1898,194,39,432,-2567
145918,-3433,-1976,170,121,416,-2558
145920,-3437,-1978,258,154,371,-2538
145922,-3395,-2044,232,186,371,-2552
145924,-3513,-1896,258,206,347,-2564
145926,-3528,-1828,275,182,339,-2619
145928,-3459,-1815,286,202,378,-2683
145930,-3365,-1780,288,220,427,-2706
145932,-3386,-1752,290,185,455,-2731
145934,-3384,-1735,285,162,496,-2715
145936,-3425,-1774,167,159,521,-2684
145938,-3475,-1836,119,154,533,-2656
145940,-3447,-1851,131,138,506,-2616
145942,-3391,-1823,132,91,485,-2582
145944,-3404,-1788,173,50,508,-2576
145946,-3376,-1857,137,17,542,-2558
145948,-3294,-1974,151,40,565,-2497
145950,-3312,-1973,186,-5,567,-2439
145952,-3294,-2084,190,-10,628,-2397
145954,-3338,-2065,172,-23,664,-2370
145956,-3342,-2025,184,-60,718,-2339
145958,-3357,-2018,118,-76,766,-2292
145960,-3315,-2033,121,-101,784,-2221
145962,-3274,-2057,139,-140,802,-2179
145964,-3273,-2091,112,-175,834,-2138
145966,-3279,-2076,133,-191,858,-2094
145968,-3277,-2106,152,-203,897,-2090
145970,-3301,-2123,183,-220,932,-2070
145972,-3248,-2200,155,-211,972,-2083
145974,-3248,-2235,198,-184,995,-2110
145976,-3285,-2237,199,-171,1015,-2143
145978,-3244,-2258,188,-149,1044,-2193
145980,-3275,-2285,132,-125,1072,-2253
145982,-3268,-2309,141,-95,1091,-2279
145984,-3263,-2392,150,-55,1125,-2306
145986,-3264,-2395,207,-44,1143,-2318
145988,-3294,-2416,198,-40,1199,-2326
145990,-3287,-2390,141,-32,1228,-2318
145992,-3285,-2456,129,-16,1239,-2293
145994,-3279,-2506,177,16,1253,-2302
145996,-3281,-2523,168,56,1277,-2312
145998,-3271,-2465,193,53,1278,-2325
146000,-3242,-2466,203,64,1296,-2339
146002,-3257,-2454,134,82,1308,-2358
146004,-3215,-2420,138,72,1306,-2389
146006,-3172,-2427,93,76,1315,-2395
146008,-3143,-2485,95,114,1325,-2435
146010,-3213,-2438,154,116,1318,-2483
146012,-3177,-2447,106,156,1331,-2521
146014,-3192,-2402,111,181,1342,-2569
146016,-3193,-2375,81,195,1327,-2568
146018,-3189,-2413,13,223,1310,-2565
146020,-3105,-2446,87,233,1289,-2572
146022,-3057,-2394,82,215,1285,-2603
146024,-2966,-2412,4,185,1330,-2681
146026,-2685,-2255,-168,50,1460,-2896
146028,-2404,-2160,-394,-218,1559,-3171
146030,-2414,-2162,-606,-455,1518,-3454
146032,-2624,-2256,-599,-588,1334,-3782
146034,-2586,-2275,-575,-686,1273,-4011
146036,-2603,-2274,-487,-833,1245,-4246
146038,-2976,-2276,-89,-812,1143,-4352
146040,-2808,-2257,-176,-802,1191,-4425
146042,-3008,-2414,68,-735,1239,-4507
146044,-2920,-2400,31,-751,1317,-4616
146046,-2983,-2344,112,-730,1362,-4677
146048,-3071,-2398,163,-595,1374,-4695
146050,-2886,-2300,-120,-608,1455,-4759
146052,-3025,-2368,47,-604,1466,-4826
146054,-2973,-2436,7,-570,1462,-4880
146056,-3006,-2314,-28,-531,1438,-4909
146058,-3032,-2573,-28,-525,1435,-4978
146060,-2899,-2486,-121,-531,1417,-5060
146062,-3165,-2612,-23,-503,1354,-5044
146064,-3139,-2581,-82,-578,1356,-4996
146066,-3109,-2729,-147,-636,1340,-4968
146068,-3413,-2898,48,-540,1165,-4882
146070,-3726,-3103,-75,-354,933,-4880
146072,-3106,-2939,139,-419,981,-4821
146074,-3132,-2935,261,-506,1034,-4721
146076,-3228,-2924,162,-504,1015,-4571
146078,-3313,-3004,65,-474,991,-4427
146080,-3299,-3030,55,-488,945,-4312
146082,-3150,-3003,-84,-560,931,-4211
146084,-3199,-3098,-23,-561,866,-4083
146086,-3105,-3134,50,-520,844,-3947
146088,-3146,-3160,10,-521,817,-3810
146090,-3082,-3167,-62,-564,801,-3699
146092,-3097,-3226,-93,-564,747,-3576
146094,-3112,-3252,-39,-542,688,-3489
146096,-3081,-3311,-33,-493,631,-3397
146098,-3067,-3379,1,-436,580,-3291
146100,-3027,-3335,-73,-404,530,-3198
146102,-3025,-3295,-144,-404,448,-3083
146104,-2989,-3293,-196,-397,359,-2982
146106,-2906,-3248,-218,-408,278,-2914
146108,-2880,-3284,-246,-406,166,-2859
146110,-2854,-3292,-229,-401,68,-2811
146112,-2856,-3300,-245,-379,-26,-2757
146114,-2788,-3281,-299,-390,-97,-2728
146116,-2823,-3309,-268,-398,-182,-2695
146118,-2792,-3305,-266,-383,-261,-2674
146120,-2744,-3275,-279,-371,-305,-2664
146122,-2737,-3251,-267,-375,-370,-2664
146124,-2744,-3231,-263,-363,-417,-2678
146126,-2717,-3211,-280,-360,-435,-2698
146128,-2699,-3193,-281,-366,-447,-2724
146130,-2675,-3161,-263,-366,-451,-2764
146132,-2657,-3155,-284,-362,-430,-2806
146134,-2618,-3151,-321,-363,-405,-2854
146136,-2611,-3149,-303,-371,-408,-2919
146138,-2551,-3108,-309,-379,-401,-2992
146140,-2539,-3093,-303,-368,-410,-3063
146142,-2495,-3080,-277,-354,-409,-3135
146144,-2450,-3053,-324,-361,-419,-3205
146146,-2462,-3068,-299,-363,-416,-3266
146148,-2410,-3071,-323,-360,-415,-3308
146150,-2371,-3099,-283,-362,-410,-3350
146152,-2339,-3111,-255,-369,-406,-3399
146154,-2358,-3111,-292,-378,-402,-3407
146156,-2357,-3157,-264,-377,-400,-3419
146158,-2368,-3133,-308,-381,-395,-3430
146160,-2387,-3160,-257,-372,-406,-3424
146162,-2373,-3162,-278,-354,-422,-3418
146164,-2375,-3151,-287,-328,-443,-3419
146166,-2365,-3176,-283,-310,-430,-3408
146168,-2335,-3162,-230,-300,-412,-3398
146170,-2304,-3153,-181,-277,-374,-3378
146172,-2326,-3167,-130,-244,-347,-3355
146174,-2325,-3176,-160,-225,-330,-3330
146176,-2329,-3132,-129,-214,-291,-3315
146178,-2325,-3098,-132,-174,-259,-3325
146180,-2318,-3094,-172,-112,-269,-3351
146182,-2338,-3085,-207,-83,-332,-3386
146184,-2310,-3102,-216,-52,-351,-3413
146186,-2252,-3084,-152,-22,-358,-3452
146188,-2242,-3110,-114,-6,-381,-3481
146190,-2235,-3148,-98,21,-380,-3509
146192,-2224,-3213,-48,54,-381,-3514
146194,-2360,-3224,-77,58,-389,-3469
146196,-2291,-3295,-24,104,-357,-3426
146198,-2231,-3301,17,145,-325,-3374
146200,-2180,-3297,13,177,-294,-3335
146202,-2168,-3291,-65,211,-281,-3310
146204,-2201,-3280,-91,227,-304,-3274
146206,-2210,-3233,-162,211,-350,-3238
146208,-2237,-3259,-156,173,-408,-3221
146210,-2154,-3294,-111,153,-426,-3218
146212,-2159,-3307,-82,102,-450,-3215
146214,-2149,-3334,-79,60,-448,-3203
146216,-2152,-3377,-86,20,-418,-3182
146218,-2152,-3462,-41,8,-407,-3140
146220,-2119,-3501,-78,-15,-385,-3085
146222,-2136,-3576,-69,-25,-355,-3050
146224,-2117,-3581,-86,-49,-324,-2982
146226,-2100,-3595,-55,-48,-290,-2953
146228,-2090,-3591,-86,-41,-268,-2925
146230,-2042,-3591,-140,-79,-285,-2939
146232,-2091,-3627,-177,-97,-307,-2946
146234,-1984,-3625,-155,-156,-294,-2967
146236,-1958,-3593,-132,-207,-294,-2998
146238,-1973,-3663,-183,-211,-275,-3001
146240,-2046,-3617,-99,-234,-251,-2985
146242,-2067,-3703,-111,-218,-206,-2939
146244,-2021,-3675,-108,-231,-168,-2922
146246,-1964,-3625,-163,-277,-125,-2901
146248,-1955,-3595,-144,-325,-83,-2895
146250,-1926,-3600,-190,-384,-60,-2899
146252,-1928,-3589,-262,-429,-56,-2890
146254,-1918,-3571,-205,-471,-23,-2890
146256,-1899,-3609,-279,-495,-7,-2896
146258,-1859,-3587,-303,-547,-3,-2884
146260,-1781,-3604,-281,-562,27,-2888
146262,-1812,-3661,-261,-555,30,-2889
146264,-1757,-3661,-255,-552,35,-2896
146266,-1804,-3682,-278,-544,32,-2882
146268,-1769,-3715,-224,-519,60,-2869
146270,-1721,-3640,-209,-513,63,-2890
146272,-1803,-3615,-254,-538,33,-2901
146274,-1902,-3624,-262,-539,11,-2889
146276,-1628,-3624,-233,-556,35,-2922
146278,-1723,-3599,-204,-565,11,-2951
146280,-1634,-3442,-269,-597,11,-3002
146282,-1796,-3485,-261,-592,-21,-3026
146284,-1731,-3503,-257,-594,-47,-3053
146286,-1779,-3443,-310,-641,-92,-3068
146288,-1668,-3457,-208,-666,-78,-3102
146290,-1806,-3507,-196,-689,-97,-3112
146292,-1640,-3524,-107,-693,-40,-3159
146294,-1738,-3536,-104,-711,-24,-3186
146296,-1668,-3577,-30,-723,11,-3240
146298,-1720,-3585,-90,-728,36,-3274
146300,-1747,-3660,-111,-703,35,-3254
146302,-1702,-3585,-179,-730,21,-3271
146304,-1672,-3580,-183,-736,14,-3293
146306,-1632,-3569,-189,-757,-44,-3351
146308,-1635,-3564,-263,-821,-152,-3432
146310,-1551,-3609,-274,-870,-235,-3540
146312,-1522,-3617,-246,-904,-299,-3649
146314,-1534,-3626,-222,-916,-368,-3762
146316,-1702,-4063,80,-791,-759,-4141
146318,-1351,-5314,685,-334,-1085,-4561
146320,-1265,-4245,-34,-294,-800,-4465
146322,-1429,-3373,-491,-516,-554,-4252
146324,-1545,-3191,-545,-738,-356,-3996
146326,-1605,-3391,-329,-858,-257,-3843
146328,-1801,-3575,-203,-911,-242,-3686
146330,-1757,-3788,-27,-913,-234,-3581
146332,-1501,-4050,77,-830,-245,-3562
146334,-1487,-4064,64,-763,-284,-3573
146336,-1448,-4057,-29,-740,-341,-3568
146338,-1327,-3982,-158,-743,-345,-3542
146340,-1242,-3977,-161,-697,-359,-3566
146342,-1192,-3931,-172,-651,-343,-3554
146344,-1331,-3835,-273,-656,-349,-3513
146346,-1309,-3902,-265,-621,-333,-3481
146348,-1305,-3892,-234,-599,-349,-3475
146350,-1291,-4007,-149,-542,-348,-3458
146352,-1327,-3971,-194,-517,-377,-3452
146354,-1283,-4010,-146,-488,-395,-3421
146356,-1318,-3992,-152,-487,-421,-3411
146358,-1299,-3952,-160,-525,-435,-3389
146360,-1284,-3928,-148,-547,-452,-3397
146362,-1261,-3946,-135,-527,-461,-3404
146364,-1211,-3862,-187,-528,-457,-3413
146366,-1158,-3897,-114,-489,-427,-3423
146368,-1236,-3919,-144,-449,-408,-3403
146370,-1220,-3935,-174,-416,-395,-3352
146372,-1220,-3953,-138,-367,-387,-3322
146374,-1180,-3942,-168,-332,-399,-3267
146376,-1173,-3901,-230,-325,-421,-3230
146378,-1144,-4004,-76,-328,-449,-3211
146380,-1152,-4000,-112,-345,-524,-3241
146382,-1150,-4037,-110,-366,-584,-3256
146384,-1114,-4071,-143,-375,-608,-3279
146386,-1053,-4038,-192,-374,-644,-3302
146388,-1057,-4014,-219,-382,-691,-3335
146390,-1013,-3973,-285,-383,-741,-3358
146392,-971,-3922,-254,-375,-797,-3375
146394,-921,-3948,-171,-354,-809,-3391
146396,-920,-3974,-130,-322,-817,-3388
146398,-997,-3975,-169,-319,-859,-3378
146400,-1009,-4047,-180,-283,-858,-3331
146402,-993,-4077,-110,-265,-809,-3263
146404,-1051,-4075,-80,-287,-782,-3190
146406,-1076,-4091,-115,-331,-756,-3111
146408,-964,-4193,-78,-336,-649,-3008
146410,-972,-4137,-172,-377,-565,-2917
146412,-997,-4056,-212,-443,-514,-2818
146414,-840,-4060,-203,-492,-503,-2673
146416,-892,-3963,-514,-583,-424,-2562
146418,-966,-3804,-567,-723,-383,-2423
146420,-1209,-3684,-551,-896,-495,-2356
146422,-949,-3790,-432,-1023,-492,-2438
146424,-802,-3598,-599,-1175,-374,-2465
146426,-689,-3694,-515,-1273,-320,-2558
146428,-855,-3697,-351,-1283,-432,-2672
146430,-675,-3849,-266,-1207,-445,-2810
146432,-683,-3877,-227,-1116,-474,-2958
146434,-648,-3944,-241,-1056,-500,-3052
146436,-728,-3956,-294,-1028,-524,-3095
146438,-781,-4006,-300,-987,-535,-3101
146440,-876,-3968,-319,-977,-571,-3094
146442,-856,-3984,-264,-940,-583,-3047
146444,-824,-3952,-260,-965,-585,-3017
146446,-847,-3966,-253,-1070,-602,-2991
146448,-949,-4023,-265,-1137,-638,-2935
146450,-934,-4076,-208,-1185,-635,-2866
146452,-920,-4411,-37,-1135,-578,-2746
146454,-887,-4383,-69,-1132,-540,-2690
146456,-922,-4306,-138,-1182,-511,-2625
146458,-862,-4628,-10,-1075,-429,-2470
146460,-835,-4592,-11,-982,-342,-2372
146462,-840,-4489,-32,-921,-277,-2292
146464,-874,-4536,-51,-797,-221,-2154
146466,-892,-4465,-59,-710,-168,-2074
146468,-782,-4485,-44,-572,-78,-1977
146470,-804,-4496,-61,-438,-16,-1886
146472,-736,-4489,-59,-335,48,-1802
146474,-767,-4452,-110,-219,134,-1712
146476,-721,-4412,-151,-106,193,-1619
146478,-704,-4374,-153,-7,247,-1544
146480,-630,-4364,-235,67,286,-1471
146482,-674,-4337,-217,176,345,-1390
146484,-591,-4344,-275,211,366,-1337
146486,-598,-4275,-357,301,447,-1277
146488,-563,-4190,-314,356,486,-1221
146490,-538,-4176,-379,388,507,-1171
146492,-501,-4149,-436,409,537,-1122
146494,-520,-4092,-413,449,606,-1079
146496,-590,-4037,-525,449,610,-1027
146498,-544,-4048,-583,423,614,-969
146500,-522,-3968,-602,386,636,-904
146502,-489,-3973,-617,345,624,-869
146504,-404,-3873,-445,295,618,-872
146506,-364,-3977,-512,223,581,-885
146508,-359,-3912,-505,248,577,-953
146510,-442,-3873,-369,253,533,-1043
146512,-454,-3954,-448,280,449,-1143
146514,-428,-3974,-347,246,359,-1212
146516,-477,-4061,-471,276,335,-1260
146518,-460,-4004,-348,281,305,-1277
146520,-481,-3990,-362,251,296,-1268
146522,-403,-3965,-367,221,322,-1239
146524,-414,-3958,-384,216,395,-1190
146526,-384,-3888,-304,174,456,-1149
146528,-333,-4083,-406,166,523,-1097
146530,-240,-4152,-375,191,579,-986
146532,-207,-4066,-314,141,643,-937
146534,-300,-4029,-409,100,682,-884
146536,-327,-3968,-466,82,729,-852
146538,-300,-3861,-407,53,748,-830
146540,-286,-3902,-453,12,747,-823
146542,-269,-3859,-400,-46,761,-804
146544,-296,-3848,-397,-73,779,-802
146546,-303,-3872,-382,-107,793,-781
146548,-326,-3823,-369,-147,812,-769
146550,-248,-3891,-299,-154,861,-767
146552,-262,-3924,-286,-136,916,-754
146554,-285,-3864,-291,-146,955,-761
146556,-278,-3925,-259,-158,1013,-759
146558,-243,-3940,-246,-150,1078,-751
146560,-329,-3942,-242,-151,1115,-745
146562,-307,-3933,-217,-167,1148,-724
146564,-364,-3971,-281,-184,1174,-708
146566,-348,-4059,-283,-183,1185,-681
146568,-403,-4018,-257,-207,1224,-659
146570,-358,-4029,-274,-239,1283,-662
146572,-331,-4016,-293,-247,1369,-635
146574,-288,-4011,-324,-267,1414,-633
146576,-266,-3997,-322,-293,1466,-632
146578,-259,-4023,-346,-318,1503,-640
146580,-253,-4007,-339,-362,1540,-667
146582,-235,-4047,-385,-393,1561,-692
146584,-263,-4040,-389,-395,1551,-704
146586,-260,-4090,-338,-411,1527,-727
146588,-276,-4131,-388,-405,1503,-727
146590,-305,-4120,-347,-404,1477,-727
146592,-332,-4120,-337,-397,1437,-727
146594,-381,-4145,-353,-379,1392,-739
146596,-366,-4136,-356,-352,1342,-746
146598,-366,-4140,-364,-333,1286,-767
146600,-298,-4191,-347,-318,1254,-789
146602,-315,-4170,-308,-289,1235,-797
146604,-320,-4201,-306,-281,1228,-813
146606,-305,-4226,-309,-275,1228,-815
146608,-283,-4252,-299,-267,1226,-830
146610,-251,-4263,-309,-256,1237,-853
146612,-217,-4293,-344,-230,1251,-886
146614,-173,-4283,-346,-195,1250,-941
146616,-214,-4220,-379,-174,1250,-965
146618,-225,-4204,-369,-168,1229,-1017
146620,-255,-4218,-349,-158,1209,-1047
146622,-246,-4217,-382,-132,1194,-1071
146624,-277,-4201,-395,-133,1173,-1100
146626,-260,-4194,-344,-117,1171,-1125
146628,-279,-4158,-366,-117,1162,-1128
146630,-300,-4146,-366,-118,1162,-1148
146632,-286,-4134,-351,-101,1167,-1159
146634,-234,-4235,-255,-35,1190,-1144
146636,-206,-4101,-356,11,1211,-1162
146638,-194,-4143,-406,0,1209,-1176
146640,-182,-4127,-440,32,1180,-1197
146642,-210,-4121,-462,43,1139,-1221
146644,-184,-4122,-467,54,1091,-1282
146646,-113,-4102,-469,57,1076,-1302
146648,-111,-4075,-455,60,1042,-1307
146650,-146,-4130,-453,48,1017,-1318
146652,-196,-4136,-482,55,1001,-1332
146654,-130,-4145,-422,66,963,-1320
146656,-120,-4088,-441,108,958,-1310
146658,-121,-4075,-411,124,920,-1283
146660,-138,-4130,-402,155,915,-1280
146662,-132,-4100,-441,221,925,-1255
146664,-96,-4118,-416,273,940,-1230
146666,-73,-4091,-397,314,941,-1219
146668,-71,-4165,-426,388,954,-1207
146670,-100,-4153,-369,441,954,-1206
146672,-20,-4177,-340,461,928,-1222
146674,-15,-4180,-394,517,938,-1236
146676,53,-4150,-407,617,992,-1273
146678,25,-4176,-383,698,1014,-1321
146680,-7,-4144,-282,725,986,-1347
146682,15,-4149,-413,755,970,-1363
146684,-58,-4097,-372,765,954,-1376
146686,-85,-4087,-431,765,948,-1360
146688,-94,-4068,-392,789,949,-1351
146690,-95,-4065,-340,759,901,-1329
146692,-77,-4044,-376,759,904,-1312
146694,-55,-4063,-358,749,880,-1286
146696,-81,-4013,-335,735,857,-1270
146698,-59,-3982,-384,715,846,-1222
146700,-26,-4003,-426,699,837,-1166
146702,-54,-4016,-353,677,819,-1120
146704,-26,-4037,-348,652,810,-1064
146706,-34,-4033,-334,617,816,-1009
146708,-66,-4041,-314,585,828,-959
146710,-26,-4025,-300,560,846,-902
146712,21,-4083,-368,532,870,-814
146714,-11,-4070,-301,505,896,-752
146716,27,-4083,-309,500,909,-704
146718,67,-4044,-354,478,926,-627
146720,56,-4043,-345,460,920,-568
146722,9,-4043,-336,451,893,-511
146724,25,-4035,-371,436,869,-474
146726,-16,-4029,-373,443,835,-422
146728,-21,-4025,-433,448,786,-376
146730,-19,-4015,-341,410,736,-326
146732,-9,-4041,-356,387,704,-296
146734,-22,-4035,-364,366,672,-234
146736,-46,-3983,-319,330,647,-201
146738,-59,-4008,-324,302,612,-152
146740,-7,-3975,-362,296,585,-117
146742,-3,-3945,-293,281,566,-94
146744,16,-3919,-357,280,532,-80
146746,36,-3937,-340,286,491,-72
146748,-2,-3911,-340,245,448,-74
146750,9,-3955,-305,254,409,-85
146752,9,-3999,-345,253,356,-63
146754,-15,-4016,-295,227,322,-62
146756,17,-4030,-326,225,292,-85
146758,43,-4033,-334,233,256,-111
146760,26,-4023,-329,220,221,-118
146762,17,-4043,-299,212,189,-136
146764,17,-4066,-376,211,162,-104
146766,18,-4101,-299,180,131,-96
146768,15,-4132,-266,146,119,-99
146770,15,-4160,-324,138,101,-69
146772,53,-4151,-309,123,90,-56
146774,32,-4177,-317,98,75,-38
146776,42,-4200,-276,77,53,-14
146778,56,-4211,-320,67,39,0
146780,62,-4220,-286,58,36,22
146782,53,-4203,-259,54,19,39
146784,57,-4245,-287,68,18,46
146786,26,-4241,-260,76,15,62
146788,47,-4227,-297,95,2,66
146790,20,-4236,-251,109,0,67
146792,20,-4216,-293,121,-9,61
146794,50,-4201,-254,147,-23,43
146796,58,-4136,-293,170,-23,24
146798,56,-4141,-321,174,-20,8
146800,79,-4107,-278,182,-21,-11
146802,65,-4095,-281,191,-15,-30
146804,56,-4084,-265,189,-15,-59
146806,21,-4090,-250,202,-29,-64
146808,7,-4071,-286,203,-35,-79
146810,15,-4081,-298,208,-53,-95
146812,29,-4088,-287,204,-59,-88
146814,30,-4088,-264,187,-75,-86
146816,35,-4082,-270,180,-79,-63
146818,16,-4090,-324,164,-84,-41
146820,15,-4045,-335,149,-89,-8
146822,-1,-4083,-293,137,-97,8
146824,5,-4054,-322,118,-107,24
146826,31,-4068,-299,112,-107,31
146828,26,-4060,-279,87,-116,24
146830,25,-4024,-305,62,-107,-17
146832,49,-4010,-266,28,-115,-78
146834,5,-4021,-225,-5,-121,-167
146836,51,-4014,-237,-37,-103,-259
146838,91,-3993,-210,-78,-68,-356
146840,100,-3977,-218,-96,-28,-450
146842,33,-3901,-262,-142,-3,-549
146844,52,-3926,-287,-177,11,-595
146846,77,-3981,-316,-197,39,-658
146848,33,-3973,-275,-219,40,-704
146850,38,-3964,-300,-258,31,-725
146852,29,-4001,-242,-292,34,-732
146854,17,-3998,-306,-305,17,-735
146856,56,-3996,-265,-324,11,-736
146858,77,-4037,-259,-331,13,-714
146860,95,-4038,-195,-338,21,-688
146862,73,-4052,-235,-328,28,-656
146864,113,-4083,-262,-306,38,-621
146866,84,-4090,-263,-293,40,-593
146868,93,-4114,-282,-276,38,-560
146870,144,-4088,-249,-258,32,-525
146872,111,-4109,-289,-236,25,-499
146874,116,-4091,-261,-218,20,-480
146876,87,-4069,-283,-196,4,-465
146878,77,-4104,-294,-174,-14,-462
146880,87,-4095,-267,-144,-25,-470
146882,101,-4075,-250,-119,-21,-497
146884,124,-4086,-245,-94,-12,-524
146886,132,-4105,-254,-68,14,-544
146888,123,-4113,-260,-56,24,-547
146890,112,-4131,-306,-39,38,-544
146892,122,-4127,-306,-9,51,-530
146894,135,-4171,-276,16,46,-508
146896,125,-4165,-265,36,36,-488
146898,118,-4196,-245,50,34,-453
146900,121,-4257,-237,61,25,-418
146902,159,-4276,-238,69,26,-367
146904,154,-4287,-237,63,29,-327
146906,183,-4303,-259,63,36,-284
146908,190,-4297,-256,74,34,-245
146910,142,-4266,-276,82,26,-206
146912,169,-4263,-246,91,20,-176
146914,139,-4226,-283,103,14,-149
146916,164,-4230,-249,116,3,-116
146918,146,-4214,-293,131,-6,-90
146920,131,-4193,-293,147,-18,-61
146922,142,-4205,-289,158,-18,-33
146924,145,-4180,-284,178,-32,-27
146926,135,-4152,-269,197,-24,-32
146928,145,-4118,-278,206,-29,-54
146930,160,-4091,-276,223,-29,-84
146932,104,-4078,-273,235,-30,-111
146934,123,-4077,-297,247,-36,-121
146936,87,-4057,-265,262,-43,-136
146938,143,-4047,-274,274,-42,-143
146940,116,-4032,-244,282,-41,-138
146942,114,-4057,-229,293,-39,-124
146944,103,-4023,-262,293,-46,-104
146946,117,-4019,-280,288,-59,-80
146948,113,-4074,-276,291,-68,-46
146950,77,-4045,-283,285,-86,-2
146952,127,-4075,-288,277,-114,40
146954,135,-4148,-319,293,-141,97
146956,185,-4155,-276,294,-164,145
146958,221,-4163,-278,309,-183,183
146960,223,-4167,-269,319,-180,228
146962,187,-4165,-279,336,-178,283
146964,173,-4149,-313,346,-183,330
146966,167,-4125,-233,336,-185,367
146968,164,-4137,-182,346,-188,388
146970,161,-4128,-160,364,-194,422
146972,146,-4172,-214,376,-200,442
146974,132,-4132,-168,401,-198,463
146976,147,-4125,-206,420,-199,459
146978,152,-4085,-223,428,-208,453
146980,167,-4048,-220,435,-226,446
146982,161,-4066,-247,418,-226,442
146984,119,-4074,-259,406,-227,436
146986,144,-4042,-204,398,-228,444
146988,128,-4046,-210,387,-218,449
146990,114,-4061,-222,379,-215,456
146992,83,-4068,-175,365,-212,475
146994,73,-4068,-189,365,-211,481
146996,45,-4061,-129,353,-221,490
146998,78,-4103,-186,352,-234,499
147000,100,-4069,-211,349,-233,508
147002,88,-4072,-172,339,-242,515
147004,91,-4066,-183,327,-252,522
147006,65,-4073,-167,312,-251,524
147008,58,-4069,-174,294,-265,527
147010,59,-4054,-176,265,-271,510
147012,56,-4026,-165,248,-280,497
147014,57,-4029,-184,224,-290,488
147016,29,-4023,-165,197,-301,468
147018,55,-4035,-160,181,-316,445
147020,74,-4026,-171,159,-322,432
147022,54,-4031,-158,144,-325,422
147024,86,-4040,-137,133,-317,414
147026,99,-4048,-137,125,-303,398
147028,137,-4032,-142,125,-274,378
147030,157,-4028,-133,126,-246,355
147032,142,-4060,-129,120,-220,333
147034,111,-4042,-132,106,-198,321
147036,106,-4071,-132,96,-186,316
147038,70,-4069,-115,79,-183,315
147040,62,-4093,-134,66,-176,316
147042,77,-4109,-96,43,-174,312
147044,101,-4112,-111,38,-163,314
147046,79,-4131,-154,21,-154,317
147048,90,-4111,-143,20,-145,329
147050,62,-4111,-159,14,-142,332
147052,61,-4113,-161,18,-137,343
147054,58,-4116,-185,18,-144,342
147056,34,-4135,-161,10,-133,345
147058,29,-4123,-138,12,-138,355
147060,30,-4159,-185,1,-140,359
147062,27,-4130,-181,12,-140,362
147064,13,-4132,-161,4,-140,348
147066,28,-4128,-167,-5,-137,334
147068,20,-4136,-135,-11,-135,312
147070,45,-4134,-141,-24,-130,288
147072,30,-4112,-131,-44,-112,252
147074,7,-4125,-124,-57,-100,211
147076,67,-4133,-161,-58,-92,180
147078,43,-4143,-125,-62,-91,152
147080,45,-4155,-119,-73,-96,117
147082,52,-4138,-156,-66,-103,86
147084,29,-4140,-156,-72,-111,69
147086,35,-4155,-160,-69,-117,47
147088,35,-4186,-125,-73,-124,28
147090,53,-4158,-155,-70,-120,13
147092,74,-4138,-132,-61,-107,-15
147094,83,-4147,-98,-48,-87,-40
147096,72,-4124,-127,-36,-63,-62
147098,58,-4155,-101,-17,-39,-79
147100,48,-4132,-92,-13,-14,-115
147102,71,-4116,-148,-1,17,-138
147104,26,-4114,-153,6,40,-170
147106,9,-4094,-152,3,71,-211
147108,20,-4067,-164,8,98,-242
147110,19,-4062,-179,0,121,-281
147112,28,-4075,-181,-5,141,-322
147114,45,-4054,-152,-9,152,-336
147116,57,-4053,-150,-15,157,-358
147118,62,-4064,-146,-20,166,-384
147120,77,-4028,-168,-15,171,-423
147122,35,-4016,-134,-20,171,-455
147124,60,-4016,-170,-21,173,-488
147126,42,-4002,-160,-18,171,-521
147128,37,-4026,-151,-24,170,-545
147130,37,-3989,-162,-19,164,-568
147132,15,-4003,-135,-23,157,-597
147134,22,-4002,-159,-24,160,-616
147136,-1,-3980,-160,-29,156,-640
147138,21,-3976,-155,-35,168,-653
147140,38,-4003,-138,-41,169,-663
147142,18,-3982,-125,-45,174,-679
147144,16,-3958,-153,-34,180,-702
147146,5,-3983,-156,-27,178,-716
147148,17,-3959,-171,-8,186,-736
147150,35,-3950,-138,26,198,-763
147152,1,-3944,-151,47,215,-790
147154,38,-3936,-146,67,222,-812
147156,31,-3937,-165,80,238,-834
147158,37,-3981,-114,97,237,-845
147160,45,-3988,-135,114,248,-853
147162,75,-3995,-151,128,251,-866
147164,92,-3989,-169,148,238,-875
147166,108,-4006,-143,168,228,-893
147168,85,-4005,-137,189,209,-900
147170,122,-4045,-129,211,201,-914
147172,136,-4057,-128,247,186,-934
147174,157,-4059,-126,281,179,-942
147176,190,-4064,-111,340,175,-961
147178,169,-4076,-97,388,192,-964
147180,127,-4068,-155,390,190,-965
147182,81,-4054,-193,374,171,-958
147184,95,-4103,-210,348,138,-943
147186,96,-4079,-220,326,103,-943
147188,146,-4128,-187,314,83,-947
147190,172,-4112,-186,310,68,-930
147192,195,-4127,-150,309,66,-927
147194,217,-4127,-132,317,71,-919
147196,206,-4155,-160,322,65,-912
147198,198,-4136,-178,324,64,-897
147200,183,-4161,-199,334,52,-890
147202,175,-4180,-200,338,29,-878
147204,192,-4168,-186,336,4,-867
147206,183,-4182,-175,326,-8,-857
147208,197,-4171,-165,309,-31,-850
147210,204,-4184,-109,303,-47,-842
147212,238,-4161,-150,313,-54,-838
147214,243,-4125,-120,336,-56,-846
147216,255,-4118,-89,380,-46,-859
147218,258,-4097,-77,418,-37,-853
147220,204,-4117,-198,372,-28,-853
147222,222,-4112,-185,371,-47,-848
147224,220,-4153,-152,370,-56,-825
147226,213,-4179,-168,365,-64,-807
147228,239,-4195,-160,341,-67,-777
147230,264,-4167,-137,322,-74,-737
147232,269,-4190,-113,318,-71,-694
147234,241,-4190,-85,296,-54,-662
147236,230,-4201,-127,271,-39,-624
147238,250,-4217,-74,243,-34,-596
147240,294,-4229,-108,247,-25,-561
147242,300,-4223,-96,257,-12,-544
147244,269,-4255,-187,207,-14,-531
147246,295,-4269,-107,203,-37,-521
147248,307,-4232,-79,229,-34,-505
147250,307,-4231,-119,199,-30,-488
147252,296,-4252,-145,146,-45,-465
147254,325,-4238,-79,138,-47,-438
147256,304,-4242,-84,126,-22,-422
147258,355,-4210,-44,119,-17,-410
147260,398,-4174,-60,124,-9,-410
147262,341,-4210,-49,122,-16,-420
147264,320,-4179,-54,135,-20,-429
147266,330,-4146,-87,130,-26,-427
147268,280,-4137,-77,118,-38,-436
147270,276,-4151,-95,119,-36,-427
147272,233,-4098,-68,117,-34,-408
147274,249,-4097,-71,120,-24,-400
147276,259,-4058,-66,114,-10,-393
147278,261,-4084,-28,104,-12,-393
147280,252,-4081,-43,110,2,-395
147282,269,-4043,-41,111,15,-412
147284,251,-4029,-49,107,31,-429
147286,244,-4027,-80,107,49,-439
147288,289,-4026,-53,102,66,-447
147290,277,-4028,-69,103,81,-460
147292,277,-4023,-53,93,91,-464
147294,302,-4011,-58,92,99,-460
147296,277,-4021,-60,77,108,-448
147298,292,-4017,-59,58,109,-436
147300,257,-4024,-52,36,95,-428
147302,268,-4013,-58,38,87,-433
147304,261,-4025,-75,28,68,-431
147306,288,-4030,-48,22,52,-423
147308,311,-4069,-63,16,38,-431
147310,278,-4029,-45,12,33,-429
147312,309,-4047,-41,19,38,-434
147314,297,-4070,-53,12,42,-430
147316,320,-4066,-26,8,48,-431
147318,359,-4059,-46,2,59,-438
147320,338,-4059,-32,2,62,-446
147322,358,-4070,-88,-9,73,-463
147324,320,-4050,-46,-6,81,-478
147326,286,-4104,-78,-16,97,-468
147328,321,-4128,-79,-29,101,-470
147330,333,-4106,-72,-42,98,-475
147332,345,-4129,-74,-50,97,-478
147334,379,-4094,-79,-55,102,-484
147336,399,-4090,-78,-58,99,-499
147338,378,-4115,-83,-59,96,-516
147340,399,-4111,-77,-52,97,-517
147342,386,-4092,-89,-38,97,-533
147344,369,-4115,-59,-29,93,-542
147346,348,-4129,-42,-25,75,-559
147348,332,-4112,-67,-9,61,-571
147350,343,-4126,-36,-1,51,-588
147352,372,-4120,-48,13,47,-593
147354,367,-4157,-65,13,52,-584
147356,365,-4140,-47,17,55,-591
147358,375,-4163,-55,17,74,-571
147360,402,-4147,10,32,107,-565
147362,431,-4168,-28,49,136,-562
147364,422,-4173,-23,47,150,-556
147366,443,-4186,-26,51,175,-544
147368,418,-4195,-45,50,194,-528
147370,427,-4172,-53,52,208,-520
147372,394,-4181,-70,46,226,-509
147374,442,-4156,-72,49,234,-496
147376,427,-4137,-43,45,240,-493
147378,399,-4125,-62,54,240,-493
147380,386,-4133,-130,43,233,-485
147382,397,-4111,-82,28,213,-468
147384,380,-4131,-67,10,202,-463
147386,382,-4096,-45,7,186,-470
147388,401,-4079,-14,-18,171,-463
147390,415,-4049,-24,-33,161,-475
147392,461,-4048,-36,-37,166,-485
147394,418,-4053,-6,-44,179,-499
147396,431,-4031,-19,-47,195,-512
147398,439,-4013,-29,-51,202,-524
147400,419,-4013,-23,-47,195,-538
147402,396,-4032,-39,-44,199,-538
147404,395,-3999,-45,-40,185,-545
147406,398,-4026,-30,-48,170,-538
147408,362,-4036,-29,-64,172,-530
147410,366,-4074,-35,-71,169,-514
147412,384,-4060,-10,-85,172,-492
147414,397,-4098,-12,-98,178,-486
147416,442,-4073,-55,-111,180,-483
147418,463,-4041,3,-124,181,-498
147420,482,-4048,-53,-112,188,-527
147422,514,-4035,-8,-93,196,-564
147424,478,-4027,-13,-80,212,-589
147426,419,-4075,-30,-98,227,-592
147428,434,-4072,-74,-96,224,-586
147430,417,-4059,-69,-102,206,-591
147432,424,-4093,-79,-93,190,-585
147434,427,-4085,-28,-75,172,-577
147436,450,-4084,-23,-57,171,-580
147438,479,-4094,-3,-42,174,-570
147440,474,-4092,-27,-27,179,-557
147442,455,-4128,-74,-33,183,-518
147444,442,-4178,-124,-50,181,-487
147446,446,-4184,-115,-44,150,-469
147448,479,-4146,-88,-47,122,-446
147450,476,-4179,-101,-62,93,-428
147452,477,-4211,-109,-69,69,-406
147454,524,-4197,-50,-79,60,-390
147456,520,-4236,-66,-79,49,-359
147458,484,-4269,-70,-82,48,-333
147460,508,-4276,-70,-89,40,-298
147462,526,-4264,-81,-80,27,-268
147464,485,-4239,-61,-61,15,-250
147466,501,-4232,-62,-46,3,-230
147468,499,-4201,-86,-30,-5,-221
147470,472,-4178,-129,-10,-26,-210
147472,490,-4199,-107,11,-50,-194
147474,459,-4200,-121,21,-62,-178
147476,477,-4158,-106,36,-74,-164
147478,482,-4174,-77,48,-79,-147
147480,500,-4180,-90,60,-74,-130
147482,452,-4153,-99,69,-69,-117
147484,490,-4129,-65,76,-69,-106
147486,478,-4169,-84,83,-69,-99
147488,430,-4159,-68,92,-86,-92
147490,488,-4173,-112,94,-109,-86
147492,505,-4172,-85,79,-101,-80
147494,471,-4173,-66,51,-95,-81
147496,476,-4104,-63,64,-112,-94
147498,510,-4061,-99,84,-112,-88
147500,497,-4044,-114,94,-110,-81
147502,466,-4086,-80,112,-105,-62
147504,479,-4066,-94,120,-105,-43
147506,479,-4087,-65,126,-99,-27
147508,495,-4079,-79,125,-98,-12
147510,525,-4033,-65,115,-83,-2
147512,495,-4054,-47,112,-75,0
147514,474,-4021,-68,103,-70,3
147516,479,-4034,-58,108,-62,9
147518,483,-4027,-39,105,-50,12
147520,516,-4019,-18,106,-15,7
147522,524,-4028,33,126,25,-6
147524,519,-4033,85,144,80,-9
147526,536,-4018,34,151,127,-14
147528,489,-4006,0,152,176,-20
147530,519,-4001,53,148,229,-23
147532,524,-3958,-13,147,286,-35
147534,526,-3968,-10,134,316,-33
147536,496,-3980,-13,129,349,-36
147538,469,-3972,-30,120,376,-30
147540,459,-3974,-67,107,380,-31
147542,448,-3958,-85,98,384,-30
147544,459,-3962,-48,90,385,-26
147546,476,-3974,-27,81,379,-26
147548,470,-3982,-33,74,380,-20
147550,484,-3989,-42,56,389,-23
147552,496,-3995,-51,45,387,-18
147554,471,-4026,-57,27,376,-23
147556,487,-4021,-79,18,362,-23
147558,474,-4045,-45,5,345,-25
147560,495,-4034,-63,3,314,-37
147562,485,-4050,-41,8,288,-61
147564,489,-4067,-43,15,270,-77
147566,469,-4102,-40,19,266,-85
147568,486,-4109,-39,22,268,-80
147570,490,-4105,-24,26,265,-73
147572,482,-4102,-96,13,253,-83
147574,483,-4116,-48,1,216,-76
147576,479,-4123,-55,-26,178,-81
147578,464,-4122,-89,-38,143,-87
147580,458,-4127,-76,-58,120,-81
147582,464,-4137,-49,-67,96,-83
147584,467,-4098,-51,-87,87,-94
147586,492,-4103,-55,-100,69,-98
147588,494,-4096,-47,-121,57,-99
147590,503,-4102,-38,-127,45,-110
147592,506,-4146,-59,-145,14,-107
147594,514,-4136,-88,-150,-2,-112
147596,496,-4147,-56,-154,-19,-106
147598,506,-4143,-48,-171,-42,-101
147600,502,-4177,-74,-181,-55,-90
147602,484,-4135,-69,-182,-65,-87
147604,484,-4138,-74,-192,-74,-74
147606,480,-4135,-38,-201,-79,-62
147608,498,-4175,-29,-208,-95,-49
147610,478,-4153,-46,-228,-110,-39
147612,488,-4193,-58,-239,-125,-30
147614,470,-4179,-56,-250,-147,-4
147616,496,-4190,-52,-261,-150,0
147618,476,-4197,-24,-284,-155,17
147620,507,-4179,-44,-298,-177,26
147622,518,-4204,-49,-315,-223,1
147624,521,-4192,-40,-326,-236,7
147626,506,-4155,-32,-334,-263,9
147628,496,-4139,-63,-348,-288,14
147630,521,-4119,-80,-352,-318,5
147632,468,-4132,-75,-366,-346,-7
147634,470,-4127,-50,-371,-371,-5
147636,454,-4108,-58,-382,-383,-2
147638,453,-4118,-54,-407,-401,5
147640,428,-4099,-100,-426,-409,4
147642,484,-4052,-75,-443,-417,9
147644,435,-4064,-66,-460,-423,5
147646,466,-4091,-120,-482,-434,5
147648,441,-4078,-112,-505,-446,2
147650,465,-4075,-133,-542,-459,-3
147652,477,-4062,-167,-572,-470,0
147654,485,-4040,-145,-586,-474,1
147656,507,-4035,-94,-614,-487,7
147658,462,-4054,-87,-641,-497,8
147660,440,-4048,-122,-659,-501,14
147662,451,-4045,-127,-675,-504,25
147664,425,-4011,-91,-698,-516,35
147666,433,-4025,-118,-712,-506,43
147668,433,-3999,-109,-731,-507,45
147670,428,-3990,-104,-752,-507,53
147672,416,-4004,-114,-780,-509,57
147674,418,-3982,-106,-810,-515,60
147676,425,-3955,-99,-841,-530,66
147678,410,-3982,-93,-880,-545,72
147680,408,-3957,-96,-924,-567,60
147682,381,-3939,-147,-971,-576,76
147684,413,-3973,-165,-1002,-572,81
147686,392,-3974,-133,-1049,-588,76
147688,380,-4008,-176,-1099,-601,80
147690,368,-3999,-161,-1157,-614,90
147692,390,-4008,-196,-1209,-624,86
147694,351,-3977,-205,-1260,-643,88
147696,359,-3941,-200,-1301,-652,73
147698,320,-3921,-236,-1341,-668,57
147700,329,-3919,-193,-1391,-694,27
147702,348,-3921,-244,-1423,-696,15
147704,352,-3897,-255,-1445,-686,-10
147706,353,-3907,-244,-1476,-685,-44
147708,363,-3875,-222,-1502,-683,-59
147710,359,-3940,-263,-1518,-689,-72
147712,418,-3934,-277,-1538,-682,-92
147714,441,-3952,-254,-1560,-686,-94
147716,445,-3961,-279,-1580,-674,-101
147718,488,-3961,-258,-1609,-645,-85
147720,495,-3831,-353,-1765,-602,-28
147722,482,-3680,-468,-1924,-551,66
147724,441,-3869,-354,-1949,-526,99
147726,483,-3521,-435,-2119,-453,199
147728,499,-3736,-445,-2126,-383,230
147730,523,-3869,-198,-2044,-356,218
147732,479,-3986,-144,-2000,-368,199
147734,524,-4081,-164,-1948,-371,168
147736,508,-4068,-229,-1935,-377,160
147738,499,-4111,-241,-1890,-394,140
147740,526,-4335,-168,-1782,-450,81
147742,560,-4287,-298,-1704,-446,40
147744,550,-4226,-323,-1709,-433,43
147746,564,-4144,-350,-1734,-403,67
147748,567,-4126,-389,-1757,-370,84
147750,554,-4156,-296,-1766,-359,92
147752,524,-4127,-340,-1788,-330,110
147754,482,-4033,-438,-1863,-288,151
147756,506,-4138,-407,-1873,-268,155
147758,493,-4187,-364,-1870,-251,174
147760,511,-4167,-430,-1886,-233,188
147762,523,-4160,-448,-1906,-222,218
147764,525,-4205,-510,-1901,-232,237
147766,531,-4236,-498,-1900,-237,248
147768,531,-4244,-516,-1899,-249,258
147770,547,-4234,-550,-1905,-242,273
147772,561,-4264,-515,-1906,-228,276
147774,540,-4246,-500,-1902,-218,265
147776,548,-4311,-522,-1891,-217,249
147778,518,-4319,-545,-1873,-224,249
147780,407,-4160,-658,-1919,-222,285
147782,212,-3959,-651,-2058,-330,259
147784,334,-4353,-459,-2053,-387,113
147786,449,-4264,-418,-2022,-396,98
147788,443,-4085,-544,-2026,-410,73
147790,432,-3985,-593,-2054,-392,89
147792,380,-3964,-586,-2046,-395,61
147794,412,-3984,-579,-2037,-399,69
147796,455,-4034,-619,-2010,-387,91
147798,457,-4014,-614,-1981,-381,100
147800,422,-4083,-659,-1965,-384,128
147802,478,-4146,-693,-1935,-376,166
147804,466,-4146,-717,-1914,-377,175
147806,481,-4167,-731,-1893,-373,180
147808,474,-4143,-755,-1876,-359,201
147810,522,-4175,-738,-1857,-316,231
147812,587,-4166,-761,-1835,-246,245
147814,600,-4201,-744,-1803,-162,255
147816,660,-4272,-833,-1664,-7,286
147818,645,-4324,-822,-1518,95,324
147820,429,-4078,-652,-1617,-17,317
147822,389,-3991,-663,-1754,-125,303
147824,334,-3986,-771,-1829,-165,294
147826,328,-4025,-849,-1860,-145,307
147828,313,-3986,-829,-1875,-115,327
147830,316,-3955,-807,-1894,-99,329
147832,339,-3925,-836,-1929,-63,319
147834,363,-3859,-857,-1956,-37,319
147836,358,-3833,-849,-2007,0,315
147838,352,-3789,-927,-2074,48,328
147840,369,-3765,-880,-2137,91,348
147842,372,-3773,-888,-2199,117,363
147844,342,-3784,-898,-2238,158,392
147846,400,-3849,-869,-2263,183,403
147848,422,-3898,-860,-2251,230,412
147850,413,-3894,-844,-2264,267,434
147852,386,-3916,-840,-2303,266,460
147854,384,-3916,-864,-2340,255,481
147856,399,-3913,-925,-2384,281,512
147858,392,-3920,-926,-2427,290,541
147860,396,-3910,-913,-2478,285,575
147862,402,-3969,-908,-2508,302,595
147864,494,-3955,-921,-2517,335,606
147866,503,-4015,-924,-2510,382,615
147868,500,-4029,-894,-2516,410,610
147870,543,-3996,-931,-2522,435,596
147872,495,-3987,-930,-2524,474,590
147874,498,-3964,-930,-2530,523,587
147876,455,-3995,-945,-2546,544,584
147878,461,-3978,-933,-2574,581,588
147880,436,-4041,-943,-2608,620,591
147882,435,-4012,-983,-2624,645,596
147884,415,-3981,-993,-2658,669,603
147886,401,-3928,-1030,-2711,690,608
147888,380,-3932,-1038,-2766,708,615
147890,364,-3914,-1026,-2806,722,614
147892,379,-3888,-1084,-2858,746,615
147894,376,-3854,-1081,-2883,760,602
147896,359,-3829,-1088,-2912,756,593
147898,380,-3814,-1122,-2941,765,580
147900,348,-3841,-1145,-2985,782,579
147902,369,-3827,-1132,-3031,807,565
147904,373,-3871,-1127,-3089,831,576
147906,398,-3913,-1108,-3168,876,594
147908,361,-3922,-1178,-3242,948,617
147910,432,-3913,-1244,-3317,1000,649
147912,410,-3909,-1209,-3419,1019,674
147914,454,-3948,-1209,-3460,983,653
147916,581,-3941,-1290,-3427,972,595
147918,578,-4000,-1267,-3415,975,565
147920,552,-4003,-1278,-3440,970,521
147922,510,-4038,-1203,-3450,921,478
147924,483,-4069,-1162,-3427,899,457
147926,452,-4089,-1135,-3387,893,422
147928,491,-3959,-1167,-3350,886,399
147930,466,-3966,-1237,-3312,855,369
147932,455,-3911,-1201,-3224,817,350
147934,431,-3846,-1211,-3165,769,322
147936,412,-3855,-1233,-3110,709,289
147938,411,-3816,-1250,-3051,646,273
147940,367,-3795,-1265,-2969,591,256
147942,390,-3839,-1283,-2905,540,221
147944,388,-3788,-1321,-2841,485,189
147946,431,-3740,-1368,-2805,448,128
147948,358,-3752,-1437,-2769,426,64
147950,329,-3707,-1408,-2748,396,9
147952,310,-3757,-1398,-2745,379,-45
147954,287,-3753,-1381,-2745,377,-80
147956,294,-3706,-1407,-2766,383,-109
147958,280,-3747,-1380,-2786,377,-125
147960,291,-3706,-1391,-2814,378,-142
147962,280,-3708,-1398,-2828,371,-144
147964,272,-3697,-1457,-2843,375,-130
147966,274,-3692,-1459,-2859,370,-107
147968,345,-3691,-1490,-2881,377,-75
147970,304,-3632,-1546,-2899,378,-52
147972,280,-3626,-1532,-2951,369,-8
147974,300,-3657,-1480,-2963,348,35
147976,293,-3743,-1488,-2940,337,60
147978,308,-3749,-1499,-2919,336,87
147980,333,-3722,-1499,-2901,357,98
147982,327,-3714,-1532,-2897,383,108
147984,359,-3713,-1532,-2896,389,103
147986,304,-3736,-1576,-2872,379,89
147988,352,-3755,-1592,-2829,383,63
147990,338,-3774,-1584,-2786,391,43
147992,321,-3763,-1655,-2770,413,31
147994,303,-3749,-1661,-2770,434,33
147996,288,-3769,-1645,-2795,441,39
147998,254,-3746,-1677,-2808,451,63
148000,297,-3777,-1662,-2833,456,85
148002,312,-3747,-1664,-2851,451,95
148004,303,-3762,-1697,-2856,442,105
148006,324,-3813,-1697,-2831,428,124
148008,350,-3775,-1699,-2816,436,141
148010,322,-3777,-1742,-2799,431,165
148012,292,-3778,-1732,-2790,423,197
148014,325,-3735,-1725,-2788,419,214
148016,326,-3720,-1769,-2782,428,229
148018,292,-3680,-1782,-2770,439,245
148020,265,-3710,-1770,-2767,435,264
148022,280,-3672,-1764,-2772,439,273
148024,321,-3671,-1785,-2764,439,285
148026,333,-3653,-1768,-2753,430,291
148028,317,-3685,-1813,-2743,409,299
148030,346,-3697,-1770,-2738,403,314
148032,299,-3654,-1804,-2745,367,335
148034,294,-3670,-1804,-2758,341,361
148036,299,-3676,-1825,-2752,325,385
148038,286,-3656,-1834,-2735,294,407
148040,303,-3673,-1828,-2736,251,413
148042,280,-3634,-1856,-2717,183,438
148044,279,-3618,-1833,-2711,118,452
148046,269,-3572,-1852,-2702,82,465
148048,266,-3558,-1859,-2682,57,476
148050,237,-3549,-1836,-2666,22,489
148052,222,-3540,-1829,-2650,-18,505
148054,212,-3544,-1821,-2648,-51,517
148056,193,-3557,-1803,-2643,-70,531
148058,214,-3578,-1888,-2610,-110,535
148060,222,-3594,-1884,-2579,-140,527
148062,224,-3599,-1916,-2569,-186,527
148064,262,-3586,-1898,-2557,-220,518
148066,277,-3555,-1902,-2541,-254,506
148068,312,-3544,-1979,-2541,-315,498
148070,348,-3507,-1984,-2551,-373,485
148072,350,-3523,-2036,-2530,-409,470
148074,353,-3503,-1965,-2518,-429,454
148076,346,-3520,-1985,-2517,-461,445
148078,329,-3528,-1970,-2520,-488,439
148080,359,-3475,-1985,-2521,-504,424
148082,328,-3492,-2036,-2515,-543,413
148084,360,-3407,-2049,-2531,-577,411
148086,378,-3400,-2060,-2540,-611,406
148088,395,-3391,-2061,-2507,-638,385
148090,411,-3305,-2061,-2497,-666,347
148092,356,-3202,-2124,-2519,-677,172
148094,454,-3185,-2073,-2574,-690,-46
148096,387,-3085,-2227,-2621,-786,-101
148098,448,-2945,-2313,-2706,-903,-190
148100,557,-2994,-2263,-2763,-933,-274
148102,483,-3090,-2198,-2751,-984,-388
148104,505,-3169,-2153,-2751,-1017,-447
148106,401,-3221,-2161,-2755,-1047,-511
148108,387,-3196,-2208,-2781,-1099,-572
148110,466,-3194,-2200,-2786,-1091,-618
148112,453,-3263,-2149,-2741,-1087,-645
148114,350,-3229,-2179,-2710,-1121,-680
148116,370,-3162,-2273,-2735,-1176,-720
148118,386,-3177,-2262,-2757,-1212,-752
148120,356,-3195,-2291,-2751,-1229,-767
148122,325,-3221,-2288,-2754,-1236,-794
148124,338,-3285,-2301,-2739,-1204,-808
148126,318,-3242,-2342,-2740,-1194,-832
148128,339,-3235,-2323,-2749,-1166,-849
148130,384,-3241,-2387,-2740,-1107,-861
148132,385,-3219,-2399,-2718,-1079,-892
148134,366,-3170,-2483,-2740,-1087,-917
148136,438,-3146,-2516,-2754,-1067,-931
148138,382,-3101,-2553,-2802,-1068,-965
148140,392,-3037,-2587,-2889,-1078,-974
148142,454,-3014,-2614,-2940,-1043,-957
148144,237,-2499,-2732,-3199,-1030,-846
148146,311,-2851,-2743,-3333,-1071,-766
148148,493,-3162,-2600,-3279,-960,-762
148150,439,-3216,-2470,-3186,-883,-779
148152,397,-3222,-2498,-3183,-907,-793
148154,402,-3205,-2557,-3195,-921,-801
148156,437,-3135,-2612,-3209,-917,-792
148158,444,-3118,-2620,-3215,-899,-782
148160,408,-3133,-2666,-3244,-899,-775
148162,382,-3201,-2652,-3282,-886,-762
148164,394,-3241,-2616,-3238,-876,-748
148166,390,-3316,-2586,-3211,-857,-723
148168,390,-3379,-2602,-3217,-825,-713
148170,362,-3384,-2595,-3208,-786,-686
148172,359,-3399,-2592,-3166,-754,-648
148174,370,-3390,-2596,-3089,-711,-602
148176,394,-3377,-2668,-3102,-673,-557
148178,392,-3386,-2683,-3046,-653,-521
148180,443,-3312,-2776,-3020,-639,-495
148182,470,-3214,-2836,-3014,-640,-490
148184,507,-3074,-2923,-3031,-643,-516
148186,462,-3034,-2965,-3059,-635,-541
148188,454,-3000,-2963,-3079,-609,-559
148190,394,-3019,-2974,-3167,-566,-562
148192,356,-3086,-2928,-3226,-486,-567
148194,319,-3164,-2886,-3249,-449,-563
148196,304,-3207,-2880,-3229,-413,-554
148198,271,-3237,-2858,-3266,-384,-556
148200,256,-3252,-2813,-3290,-358,-547
148202,259,-3249,-2808,-3239,-340,-543
148204,232,-3223,-2800,-3268,-340,-539
148206,259,-3229,-2754,-3246,-335,-525
148208,213,-3252,-2770,-3190,-321,-515
148210,208,-3234,-2784,-3162,-305,-495
148212,196,-3274,-2754,-3128,-284,-458
148214,182,-3275,-2740,-3049,-254,-423
148216,198,-3322,-2748,-3006,-234,-374
148218,232,-3292,-2772,-2954,-210,-345
148220,305,-3256,-2861,-2909,-185,-322
148222,341,-3176,-2882,-2864,-182,-339
148224,419,-3111,-2910,-2839,-201,-372
148226,459,-3052,-2981,-2814,-220,-420
148228,515,-3099,-3014,-2799,-236,-482
148230,525,-3052,-3002,-2786,-236,-534
148232,567,-3108,-3015,-2752,-232,-580
148234,568,-3125,-3040,-2723,-217,-629
148236,580,-3096,-3055,-2702,-206,-672
148238,618,-3102,-3096,-2672,-177,-687
148240,601,-3095,-3085,-2640,-145,-706
148242,621,-3038,-3107,-2612,-116,-711
148244,650,-3006,-3125,-2587,-89,-713
148246,658,-2924,-3152,-2583,-74,-727
148248,685,-2843,-3157,-2595,-75,-740
148250,648,-2792,-3202,-2606,-74,-766
148252,633,-2726,-3223,-2650,-48,-777
148254,612,-2700,-3247,-2676,-17,-779
148256,558,-2669,-3236,-2720,26,-768
148258,540,-2623,-3242,-2751,76,-750
148260,484,-2613,-3250,-2792,128,-730
148262,502,-2597,-3224,-2828,165,-720
148264,501,-2569,-3240,-2858,194,-727
148266,492,-2545,-3201,-2880,219,-739
148268,470,-2536,-3184,-2903,235,-749
148270,454,-2549,-3187,-2926,248,-770
148272,450,-2563,-3178,-2936,258,-778
148274,448,-2588,-3179,-2947,259,-806
148276,464,-2601,-3166,-2967,233,-830
148278,428,-2630,-3158,-2980,211,-860
148280,409,-2660,-3159,-2987,187,-891
148282,399,-2669,-3176,-3011,146,-912
148284,371,-2700,-3189,-3011,125,-915
148286,425,-2696,-3182,-3011,99,-917
148288,386,-2726,-3159,-3015,72,-923
148290,354,-2730,-3204,-3017,48,-921
148292,356,-2779,-3185,-3003,29,-907
148294,369,-2813,-3162,-2980,26,-882
148296,356,-2833,-3207,-2968,30,-842
148298,318,-2850,-3208,-2961,56,-798
148300,275,-2885,-3196,-2944,90,-732
148302,269,-2854,-3212,-2929,121,-665
148304,208,-2883,-3215,-2919,157,-596
148306,183,-2865,-3190,-2904,197,-525
148308,226,-2866,-3211,-2898,209,-467
148310,214,-2887,-3205,-2875,220,-418
148312,182,-2896,-3183,-2846,217,-368
148314,188,-2899,-3174,-2815,202,-337
148316,169,-2945,-3178,-2774,189,-303
148318,174,-2954,-3118,-2735,169,-268
148320,129,-2987,-3101,-2691,145,-223
148322,133,-3003,-3108,-2636,147,-181
148324,85,-2994,-3088,-2581,149,-125
148326,60,-2994,-3092,-2525,135,-77
148328,63,-2941,-3118,-2464,111,-32
148330,97,-2874,-3101,-2414,62,-20
148332,158,-2732,-3176,-2353,0,-50
148334,157,-2607,-3188,-2314,-90,-105
148336,190,-2546,-3268,-2299,-164,-166
148338,168,-2518,-3246,-2279,-218,-223
148340,178,-2500,-3263,-2261,-262,-262
148342,180,-2558,-3228,-2269,-312,-317
148344,168,-2526,-3265,-2279,-348,-336
148346,179,-2537,-3293,-2295,-384,-367
148348,184,-2491,-3260,-2327,-456,-397
148350,172,-2437,-3298,-2360,-513,-417
148352,201,-2428,-3290,-2390,-564,-459
148354,186,-2435,-3308,-2424,-599,-485
148356,233,-2442,-3308,-2454,-630,-505
148358,226,-2481,-3301,-2466,-647,-522
148360,243,-2437,-3333,-2471,-673,-539
148362,269,-2454,-3360,-2485,-693,-569
148364,295,-2412,-3432,-2514,-709,-588
148366,255,-2441,-3465,-2546,-696,-598
148368,282,-2501,-3429,-2584,-656,-570
148370,264,-2547,-3448,-2621,-606,-548
148372,279,-2584,-3432,-2657,-541,-508
148374,310,-2542,-3431,-2680,-503,-490
148376,408,-2414,-3458,-2714,-476,-494
148378,442,-2322,-3537,-2773,-447,-495
148380,517,-2241,-3602,-2839,-443,-508
148382,526,-2190,-3605,-2915,-436,-519
148384,553,-2169,-3563,-2982,-421,-529
148386,579,-2167,-3568,-3039,-392,-532
148388,601,-2206,-3582,-3087,-364,-520
148390,579,-2206,-3568,-3110,-329,-515
148392,558,-2177,-3588,-3124,-292,-510
148394,580,-2137,-3569,-3174,-266,-490
148396,566,-2113,-3586,-3200,-262,-468
148398,553,-2100,-3608,-3231,-268,-454
148400,589,-2082,-3617,-3248,-283,-432
148402,524,-2082,-3625,-3313,-308,-402
148404,499,-2101,-3620,-3345,-315,-384
148406,499,-2098,-3590,-3376,-323,-371
148408,472,-2089,-3554,-3405,-327,-350
148410,476,-2090,-3620,-3432,-317,-337
148412,466,-2102,-3586,-3451,-294,-324
148414,438,-2107,-3610,-3464,-267,-307
148416,441,-2119,-3579,-3480,-240,-296
148418,486,-2142,-3598,-3476,-208,-283
148420,508,-2121,-3652,-3458,-204,-299
148422,522,-2052,-3656,-3437,-215,-337
148424,558,-2046,-3676,-3416,-249,-372
148426,522,-2027,-3643,-3379,-285,-395
148428,505,-2065,-3529,-3338,-340,-390
148430,474,-2068,-3520,-3265,-397,-375
148432,388,-2069,-3531,-3252,-466,-346
148434,379,-2072,-3520,-3199,-505,-319
148436,370,-2072,-3536,-3160,-543,-277
148438,332,-2090,-3574,-3120,-580,-221
148440,307,-2114,-3538,-3047,-612,-164
148442,321,-2097,-3568,-3008,-639,-101
148444,327,-2119,-3602,-2961,-667,-72
148446,349,-2085,-3571,-2922,-726,-50
148448,384,-2063,-3596,-2887,-807,-35
148450,409,-2051,-3620,-2849,-893,-52
148452,437,-2051,-3627,-2807,-982,-77
148454,422,-2038,-3610,-2769,-1053,-102
148456,429,-2093,-3548,-2718,-1108,-128
148458,389,-2074,-3530,-2661,-1136,-136
148460,348,-2040,-3586,-2596,-1123,-119
148462,230,-2018,-3582,-2540,-1065,-74
148464,217,-1964,-3592,-2510,-1017,-27
148466,145,-1913,-3577,-2486,-956,31
148468,165,-1794,-3595,-2482,-899,80
148470,143,-1715,-3654,-2498,-882,110
148472,162,-1600,-3671,-2539,-896,112
148474,191,-1570,-3678,-2583,-919,92
148476,207,-1538,-3636,-2635,-950,69
148478,232,-1508,-3565,-2696,-983,44
148480,241,-1497,-3560,-2745,-1005,11
148482,241,-1492,-3577,-2777,-1005,-14
148484,264,-1465,-3589,-2804,-997,-39
148486,260,-1483,-3562,-2828,-973,-63
148488,285,-1476,-3583,-2844,-946,-80
148490,339,-1464,-3615,-2853,-893,-99
148492,357,-1402,-3620,-2867,-843,-136
148494,390,-1377,-3638,-2886,-815,-153
148496,375,-1383,-3668,-2905,-783,-183
148498,417,-1334,-3682,-2926,-742,-208
148500,435,-1294,-3725,-2946,-705,-239
148502,428,-1275,-3692,-2985,-672,-262
148504,427,-1233,-3756,-3013,-646,-279
148506,420,-1209,-3783,-3054,-613,-296
148508,462,-1180,-3803,-3113,-575,-308
148510,440,-1129,-3874,-3182,-546,-323
148512,437,-1084,-3905,-3252,-509,-334
148514,423,-1034,-3936,-3305,-465,-345
148516,454,-1011,-3932,-3412,-425,-358
148518,456,-1027,-3996,-3509,-387,-368
148520,452,-1017,-3962,-3606,-335,-387
148522,467,-1084,-3979,-3710,-265,-402
148524,485,-1103,-3971,-3771,-222,-410
148526,475,-1134,-3971,-3839,-151,-415
148528,496,-1176,-3986,-3907,-84,-428
148530,460,-1177,-4014,-3957,-35,-437
148532,469,-1187,-4008,-3999,23,-431
148534,467,-1217,-4045,-4045,91,-429
148536,426,-1241,-4025,-4090,186,-417
148538,454,-1273,-4031,-4106,265,-413
148540,439,-1282,-4035,-4120,325,-405
148542,434,-1283,-4063,-4140,370,-416
148544,508,-1225,-4077,-4149,398,-455
148546,481,-1179,-4126,-4161,379,-501
148548,500,-1107,-4111,-4184,351,-554
148550,486,-1104,-4119,-4207,311,-618
148552,465,-1144,-4113,-4232,284,-687
148554,444,-1187,-4075,-4254,273,-713
148556,450,-1215,-4081,-4285,264,-742
148558,402,-1257,-4072,-4317,249,-759
148560,393,-1281,-4038,-4346,245,-774
148562,389,-1313,-4028,-4355,239,-787
148564,382,-1301,-3991,-4316,221,-822
148566,421,-1341,-3988,-4220,230,-842
148568,414,-1345,-3934,-4103,248,-864
148570,377,-1358,-3885,-3989,225,-877
148572,395,-1397,-3872,-3827,202,-887
148574,334,-1390,-3852,-3661,188,-884
148576,307,-1357,-3823,-3498,155,-868
148578,263,-1343,-3881,-3348,124,-834
148580,251,-1288,-3827,-3226,112,-793
148582,230,-1265,-3892,-3091,83,-726
148584,241,-1226,-3894,-2995,66,-688
148586,270,-1205,-3946,-2899,42,-656
148588,258,-1196,-3917,-2801,22,-625
148590,253,-1197,-3914,-2697,-2,-596
148592,266,-1155,-3900,-2619,-18,-552
148594,255,-1119,-3948,-2546,-28,-509
148596,269,-1089,-3929,-2497,-32,-459
148598,250,-1005,-3973,-2463,-35,-408
148600,210,-916,-3967,-2443,-35,-361
148602,193,-843,-4002,-2439,-32,-320
148604,165,-818,-3957,-2434,-24,-269
148606,135,-790,-3953,-2427,-2,-227
148608,143,-790,-3946,-2436,10,-187
148610,140,-806,-3872,-2445,24,-144
148612,152,-807,-3912,-2457,34,-100
148614,165,-766,-3912,-2445,34,-68
148616,141,-735,-3924,-2434,30,-46
148618,164,-746,-3932,-2418,8,-25
148620,187,-729,-3898,-2389,-5,2
148622,216,-730,-3874,-2367,-1,25
148624,208,-746,-3924,-2345,-3,55
148626,211,-746,-3881,-2319,-8,72
148628,252,-778,-3903,-2273,14,90
148630,276,-767,-3954,-2234,45,107
148632,285,-784,-3992,-2184,72,127
148634,311,-798,-3951,-2139,91,143
148636,339,-805,-3967,-2088,114,180
148638,346,-810,-4020,-2039,144,204
148640,331,-818,-4009,-1993,166,212
148642,362,-801,-3995,-1939,202,232
148644,367,-844,-4004,-1906,227,239
148646,386,-844,-4017,-1860,260,254
148648,372,-861,-4011,-1814,292,279
148650,314,-877,-3989,-1777,340,319
148652,288,-884,-4021,-1735,374,367
148654,271,-920,-3982,-1685,412,421
148656,262,-916,-3998,-1635,441,469
148658,284,-861,-4057,-1593,441,491
148660,318,-771,-4069,-1557,423,491
148662,284,-737,-4104,-1532,382,462
148664,324,-682,-4100,-1512,325,405
148666,403,-634,-4130,-1510,252,312
148668,397,-638,-4139,-1513,197,205
148670,421,-680,-4148,-1529,146,87
148672,379,-736,-4121,-1556,126,-46
148674,370,-774,-4079,-1572,122,-115
148676,308,-795,-4089,-1586,125,-190
148678,297,-809,-4084,-1596,130,-254
148680,292,-761,-4092,-1615,125,-305
148682,290,-701,-4116,-1627,104,-376
148684,372,-658,-4134,-1642,59,-460
148686,399,-571,-4144,-1658,-7,-565
148688,443,-536,-4175,-1687,-73,-683
148690,436,-500,-4118,-1715,-120,-814
148692,447,-454,-4099,-1760,-166,-954
148694,424,-430,-4068,-1805,-187,-1079
148696,394,-383,-4054,-1868,-207,-1187
148698,359,-413,-4079,-1937,-219,-1263
148700,290,-421,-4020,-2007,-201,-1320
148702,285,-432,-4015,-2086,-161,-1370
148704,273,-424,-4025,-2136,-133,-1378
148706,281,-418,-4016,-2204,-107,-1384
148708,278,-391,-4009,-2278,-67,-1381
148710,270,-412,-4050,-2341,-27,-1365
148712,310,-370,-4033,-2401,4,-1339
148714,291,-409,-4042,-2470,43,-1308
148716,284,-406,-4008,-2532,80,-1251
148718,291,-447,-4057,-2602,123,-1173
148720,345,-479,-4060,-2642,172,-1109
148722,360,-461,-4004,-2661,218,-1036
148724,364,-472,-4022,-2681,236,-965
148726,393,-493,-4046,-2680,253,-894
148728,388,-466,-4028,-2677,269,-818
148730,435,-481,-3993,-2651,288,-770
148732,468,-478,-4016,-2594,308,-717
148734,509,-425,-4016,-2558,314,-687
148736,467,-416,-4087,-2522,340,-642
148738,440,-390,-4084,-2467,382,-583
148740,410,-366,-4085,-2447,450,-495
148742,394,-339,-4104,-2458,509,-376
148744,326,-327,-4141,-2484,552,-246
148746,338,-369,-4107,-2526,617,-100
148748,247,-390,-4148,-2552,676,53
148750,286,-408,-4132,-2596,728,191
148752,270,-429,-4120,-2615,781,332
148754,282,-493,-4094,-2614,821,465
148756,332,-511,-4083,-2598,866,593
148758,371,-488,-4095,-2572,923,705
148760,401,-476,-4068,-2549,954,799
148762,412,-553,-4073,-2461,984,904
148764,450,-535,-4039,-2397,1002,978
148766,427,-511,-4061,-2343,1015,1065
148768,436,-518,-4094,-2289,1032,1155
148770,419,-502,-4081,-2232,1039,1228
148772,460,-499,-4091,-2157,1033,1274
148774,498,-470,-4016,-2074,1007,1309
148776,524,-442,-4005,-1983,978,1316
148778,541,-443,-3992,-1887,928,1308
148780,545,-452,-3958,-1754,886,1283
148782,556,-442,-3916,-1625,850,1257
148784,532,-451,-3915,-1500,796,1225
148786,476,-457,-3922,-1371,755,1199
148788,483,-445,-3964,-1251,713,1160
148790,487,-405,-3968,-1142,631,1101
148792,513,-291,-3996,-1008,527,989
148794,492,-257,-4019,-944,454,896
148796,464,-237,-4054,-887,358,794
148798,450,-201,-4089,-830,263,668
148800,499,-226,-4055,-793,170,538
148802,451,-253,-4069,-769,76,412
148804,431,-280,-4054,-746,10,293
148806,396,-267,-4039,-729,-35,196
148808,369,-311,-3980,-697,-65,117
148810,315,-310,-4023,-673,-91,54
148812,258,-315,-3982,-648,-123,15
148814,261,-286,-3974,-628,-161,-23
148816,286,-245,-4001,-597,-210,-70
148818,264,-231,-3972,-573,-273,-139
148820,282,-146,-3952,-554,-326,-201
148822,306,-186,-4031,-540,-396,-293
148824,326,-211,-4015,-526,-448,-358
148826,350,-252,-4011,-500,-494,-426
148828,376,-253,-4013,-461,-549,-505
148830,390,-253,-3964,-432,-571,-567
148832,383,-269,-3980,-392,-598,-612
148834,337,-262,-4002,-358,-610,-660
148836,354,-253,-4003,-322,-614,-679
148838,393,-225,-4005,-288,-618,-690
148840,402,-203,-4023,-257,-614,-687
148842,409,-146,-4013,-231,-599,-675
148844,420,-139,-4026,-201,-594,-660
148846,466,-106,-4042,-166,-588,-644
148848,484,-70,-4050,-151,-570,-605
148850,495,-17,-4071,-133,-559,-574
148852,484,20,-4102,-115,-548,-521
148854,508,69,-4103,-114,-536,-470
148856,493,110,-4111,-113,-530,-416
148858,510,87,-4106,-110,-531,-347
148860,538,102,-4148,-109,-532,-277
148862,543,151,-4136,-110,-527,-218
148864,535,138,-4093,-107,-517,-162
148866,549,186,-4120,-105,-509,-108
148868,576,172,-4122,-105,-499,-62
148870,564,191,-4090,-111,-481,-21
148872,575,180,-4099,-124,-456,16
148874,538,177,-4096,-136,-430,56
148876,527,135,-4095,-154,-411,75
148878,527,144,-4109,-172,-393,92
148880,527,139,-4075,-186,-371,115
148882,530,119,-4086,-196,-358,140
148884,509,107,-4090,-201,-350,159
148886,518,95,-4118,-207,-344,179
148888,548,85,-4096,-198,-339,199
148890,583,108,-4150,-194,-335,202
148892,552,113,-4158,-200,-322,214
148894,559,160,-4083,-202,-301,218
148896,511,164,-4108,-213,-277,208
148898,475,168,-4125,-230,-258,218
148900,410,181,-4081,-250,-246,215
148902,381,98,-4047,-260,-227,225
148904,316,100,-3969,-276,-210,240
148906,266,62,-3999,-276,-196,253
148908,240,51,-3944,-265,-191,261
148910,246,14,-3946,-246,-186,273
148912,234,25,-3893,-212,-211,283
148914,226,45,-3909,-190,-230,261
148916,227,150,-3937,-172,-259,231
148918,218,228,-3952,-171,-310,175
148920,137,291,-3954,-209,-366,96
148922,53,291,-3902,-257,-407,23
148924,-3,264,-3850,-316,-436,-33
148926,-90,215,-3790,-380,-465,-101
148928,-123,173,-3779,-446,-490,-152
148930,-146,128,-3706,-489,-496,-189
148932,-146,129,-3678,-524,-497,-229
148934,-167,149,-3705,-558,-507,-258
148936,-164,108,-3714,-592,-503,-283
148938,-106,117,-3740,-609,-504,-297
148940,-48,141,-3729,-624,-499,-317
148942,-17,126,-3701,-637,-495,-358
148944,45,168,-3776,-643,-510,-383
148946,87,149,-3826,-649,-509,-419
148948,146,153,-3817,-654,-510,-474
148950,207,166,-3840,-667,-516,-507
148952,210,173,-3866,-669,-513,-547
148954,228,126,-3906,-672,-512,-576
148956,267,129,-3959,-674,-504,-596
148958,294,101,-3973,-667,-484,-608
148960,329,68,-3999,-660,-470,-606
148962,346,70,-4044,-649,-452,-600
148964,397,104,-4110,-637,-428,-587
148966,466,112,-4085,-627,-412,-573
148968,500,98,-4132,-616,-394,-544
148970,540,114,-4184,-611,-375,-533
148972,597,149,-4224,-608,-355,-526
148974,611,143,-4219,-603,-342,-515
148976,622,119,-4286,-597,-323,-494
148978,651,141,-4274,-598,-295,-478
148980,655,147,-4293,-593,-282,-452
148982,644,157,-4319,-586,-257,-417
148984,619,135,-4279,-585,-248,-374
148986,628,155,-4338,-584,-226,-321
148988,622,132,-4283,-573,-212,-269
148990,624,129,-4290,-561,-189,-214
148992,570,137,-4277,-543,-166,-167
148994,564,109,-4284,-518,-136,-96
148996,577,127,-4280,-503,-112,-42
148998,606,120,-4325,-473,-88,13
149000,593,118,-4299,-446,-71,51
149002,576,132,-4314,-415,-62,93
149004,561,152,-4320,-392,-53,114
149006,550,156,-4328,-376,-51,132
149008,520,190,-4297,-351,-49,135
149010,531,233,-4287,-334,-51,129
149012,509,295,-4337,-317,-58,102
149014,483,323,-4279,-313,-75,56
149016,452,325,-4253,-323,-90,6
149018,447,311,-4252,-327,-101,-50
149020,393,309,-4230,-335,-103,-113
149022,380,274,-4218,-347,-111,-173
149024,340,264,-4184,-351,-132,-212
149026,350,239,-4180,-356,-129,-258
149028,345,277,-4153,-359,-139,-300
149030,336,258,-4210,-356,-155,-342
149032,364,265,-4199,-351,-164,-393
149034,369,248,-4154,-344,-168,-434
149036,386,204,-4174,-333,-171,-469
149038,370,246,-4165,-326,-158,-496
149040,365,214,-4146,-306,-155,-524
149042,348,238,-4144,-294,-157,-541
149044,310,248,-4155,-287,-155,-549
149046,309,273,-4131,-280,-146,-563
149048,265,259,-4122,-283,-150,-554
149050,259,270,-4097,-283,-142,-543
149052,237,275,-4089,-282,-130,-526
149054,249,277,-4105,-283,-129,-509
149056,217,272,-4078,-271,-130,-490
149058,213,283,-4042,-264,-123,-475
149060,194,261,-4094,-250,-141,-465
149062,227,269,-4052,-232,-144,-429
149064,210,279,-4071,-224,-149,-412
149066,218,309,-4052,-220,-156,-391
149068,211,286,-4043,-206,-152,-361
149070,226,269,-4064,-200,-156,-324
149072,219,276,-4054,-194,-146,-295
149074,243,272,-4114,-180,-143,-263
149076,260,261,-4134,-172,-132,-231
149078,289,249,-4144,-166,-131,-195
149080,333,246,-4148,-153,-122,-186
149082,342,242,-4210,-145,-122,-169
149084,346,251,-4170,-136,-125,-157
149086,366,242,-4249,-132,-113,-148
149088,370,213,-4188,-125,-105,-128
149090,373,195,-4227,-116,-99,-116
149092,392,211,-4191,-104,-90,-85
149094,389,203,-4239,-89,-81,-66
149096,377,181,-4213,-71,-76,-47
149098,385,188,-4218,-52,-62,-31
149100,375,151,-4227,-34,-61,-18
149102,360,154,-4182,-8,-58,6
149104,347,101,-4192,17,-43,30
149106,362,104,-4236,41,-31,54
149108,328,83,-4217,73,-28,83
149110,324,109,-4198,88,-18,121
149112,328,114,-4215,116,-12,148
149114,339,122,-4232,139,-18,162
149116,339,114,-4190,165,-33,165
149118,337,129,-4213,185,-35,170
149120,327,110,-4189,212,-43,171
149122,339,97,-4163,251,-47,173
149124,339,101,-4167,268,-50,174
149126,280,115,-4160,290,-51,183
149128,287,104,-4137,316,-49,187
149130,294,106,-4128,345,-47,204
149132,294,94,-4092,379,-47,207
149134,248,92,-4081,408,-46,219
149136,239,110,-4080,450,-41,237
149138,246,150,-4062,484,-43,244
149140,268,140,-4051,539,-57,239
149142,327,160,-3980,620,-90,197
149144,398,174,-3854,779,-184,72
149146,464,143,-3734,951,-259,-68
149148,333,171,-4024,932,-209,-103
149150,12,226,-4177,867,-142,-10
149152,-20,310,-4214,719,-73,111
149154,-6,271,-4174,632,-54,164
149156,56,248,-4152,553,-58,183
149158,102,265,-4174,454,-80,178
149160,183,258,-4118,391,-112,167
149162,202,245,-4072,356,-144,163
149164,209,210,-4022,346,-156,152
149166,195,203,-3989,351,-147,166
149168,197,217,-3978,364,-135,177
149170,206,211,-3988,385,-123,187
149172,210,184,-4012,411,-115,193
149174,201,195,-4021,426,-131,199
149176,180,177,-3995,430,-144,212
149178,183,163,-4045,442,-152,234
149180,213,158,-4060,445,-159,264
149182,192,145,-4042,445,-176,300
149184,215,156,-4074,446,-186,311
149186,247,159,-4072,442,-199,321
149188,249,157,-4075,433,-226,325
149190,266,153,-4090,433,-230,325
149192,268,146,-4040,434,-235,319
149194,295,126,-4053,446,-227,328
149196,321,99,-4088,454,-219,332
149198,300,104,-4107,459,-206,337
149200,309,86,-4103,473,-188,337
149202,322,114,-4072,473,-178,339
149204,338,98,-4120,470,-172,335
149206,298,104,-4098,471,-167,331
149208,310,106,-4110,466,-179,332
149210,304,99,-4106,464,-182,328
149212,284,49,-4120,464,-204,330
149214,279,55,-4129,470,-218,325
149216,271,88,-4132,485,-234,318
149218,298,69,-4088,502,-237,327
149220,297,70,-4100,516,-235,332
149222,277,71,-4086,537,-231,345
149224,272,67,-4113,567,-225,353
149226,245,44,-4047,585,-219,358
149228,245,30,-4094,610,-221,351
149230,222,13,-4089,641,-211,356
149232,217,3,-4055,656,-202,366
149234,206,16,-4069,663,-189,386
149236,181,40,-4070,675,-167,408
149238,182,24,-4108,679,-172,426
149240,211,42,-4115,685,-170,440
149242,229,70,-4077,687,-175,436
149244,245,70,-4097,690,-194,420
149246,249,113,-4116,685,-205,393
149248,245,170,-4127,670,-233,353
149250,272,177,-4087,651,-248,304
149252,240,146,-4084,637,-263,257
149254,234,104,-4106,613,-261,207
149256,237,117,-4070,584,-257,162
149258,242,95,-4022,578,-254,117
149260,231,85,-4032,565,-243,67
149262,204,57,-4021,548,-242,22
149264,198,60,-4055,542,-234,-24
149266,150,46,-4036,531,-235,-67
149268,165,21,-4014,522,-219,-92
149270,158,31,-3987,517,-210,-127
149272,154,-2,-4000,511,-201,-153
149274,185,17,-4023,515,-196,-167
149276,169,-5,-4015,511,-180,-183
149278,160,-11,-4042,506,-168,-199
149280,167,-32,-4034,504,-159,-215
149282,214,-37,-4014,502,-141,-235
149284,235,-23,-4008,498,-121,-256
149286,232,-56,-4009,497,-108,-284
149288,254,-67,-4047,501,-89,-306
149290,252,-94,-4046,506,-73,-329
149292,230,-65,-4009,512,-61,-348
149294,233,-96,-4001,527,-48,-352
149296,234,-94,-4036,531,-39,-355
149298,237,-114,-4028,548,-31,-369
149300,238,-106,-4041,570,-27,-381
149302,283,-101,-4072,598,-33,-384
149304,270,-110,-4072,614,-35,-400
149306,340,-127,-4067,638,-36,-417
149308,346,-95,-4094,650,-36,-423
149310,343,-136,-4092,660,-26,-437
149312,326,-137,-4075,667,-25,-451
149314,341,-149,-4084,680,-15,-458
149316,313,-158,-4067,693,-7,-455
149318,271,-137,-4070,701,7,-442
149320,299,-130,-4060,717,18,-435
149322,294,-178,-4036,740,34,-423
149324,277,-196,-4053,772,45,-416
149326,285,-164,-4050,791,45,-401
149328,287,-177,-4074,799,36,-387
149330,277,-147,-4031,814,29,-379
149332,283,-197,-4048,830,10,-353
149334,279,-199,-4078,832,-6,-330
149336,260,-197,-4065,840,-27,-308
149338,309,-213,-4063,848,-44,-270
149340,261,-204,-4062,858,-53,-245
149342,243,-231,-4048,877,-52,-215
149344,264,-282,-4046,901,-53,-185
149346,237,-265,-4017,932,-49,-168
149348,248,-283,-3982,969,-41,-148
149350,258,-280,-4007,1003,-43,-123
149352,237,-256,-3987,1034,-54,-107
149354,216,-250,-4034,1061,-60,-83
149356,207,-251,-3998,1089,-82,-69
149358,197,-206,-4029,1117,-112,-59
149360,249,-190,-4050,1125,-151,-55
149362,234,-172,-4074,1130,-209,-77
149364,235,-126,-4065,1130,-239,-93
149366,238,-130,-4064,1127,-258,-89
149368,212,-114,-4080,1106,-257,-86
149370,166,-142,-4103,1080,-221,-47
149372,67,-177,-4099,1042,-152,8
149374,44,-152,-4124,989,-82,75
149376,-32,-189,-4085,933,-16,145
149378,-22,-201,-4055,881,34,204
149380,-9,-177,-4060,835,81,249
149382,-25,-188,-4076,795,119,281
149384,37,-176,-4041,767,132,293
149386,48,-186,-4024,746,148,306
149388,74,-168,-4015,714,158,303
149390,85,-167,-4044,707,155,302
149392,137,-171,-4037,683,161,278
149394,130,-146,-4065,677,161,265
149396,148,-160,-4086,666,158,255
149398,180,-186,-4093,650,155,236
149400,183,-198,-4097,635,151,219
149402,205,-225,-4098,628,159,204
149404,206,-238,-4114,626,167,187
149406,212,-222,-4094,616,164,178
149408,236,-256,-4097,620,168,171
149410,247,-287,-4124,633,168,166
149412,250,-263,-4109,636,162,166
149414,264,-322,-4124,647,158,177
149416,248,-332,-4132,654,152,187
149418,257,-324,-4121,665,145,205
149420,249,-346,-4135,685,148,227
149422,255,-367,-4131,704,140,258
149424,252,-397,-4151,722,146,278
149426,290,-390,-4155,742,152,303
149428,268,-429,-4189,763,155,323
149430,265,-419,-4138,780,157,343
149432,280,-414,-4138,808,150,362
149434,311,-443,-4155,836,152,379
149436,321,-481,-4154,872,157,384
149438,304,-452,-4162,905,152,405
149440,316,-477,-4144,944,156,428
149442,305,-473,-4177,987,146,444
149444,324,-496,-4143,1023,127,468
149446,331,-534,-4218,1070,113,484
149448,366,-522,-4143,1116,95,503
149450,382,-508,-4187,1153,81,508
149452,417,-479,-4198,1221,64,504
149454,363,-516,-4191,1253,54,499
149456,381,-509,-4140,1285,41,502
149458,342,-524,-4179,1325,36,507
149460,312,-517,-4205,1357,30,513
149462,304,-512,-4171,1389,30,518
149464,251,-481,-4216,1424,17,507
149466,302,-504,-4193,1460,-19,471
149468,318,-497,-4191,1496,-59,419
149470,308,-456,-4240,1543,-113,352
149472,280,-451,-4218,1580,-166,289
149474,248,-499,-4189,1623,-227,218
149476,247,-548,-4172,1665,-280,160
149478,206,-590,-4181,1714,-336,104
149480,171,-664,-4145,1771,-387,70
149482,178,-705,-4155,1851,-425,28
149484,140,-725,-4112,1900,-449,15
149486,95,-775,-4140,1955,-472,1
149488,140,-786,-4101,2028,-491,-14
149490,132,-825,-4111,2101,-500,-16
149492,127,-814,-4115,2152,-506,-31
149494,99,-812,-4150,2210,-516,-40
149496,146,-780,-4144,2266,-501,-65
149498,104,-764,-4174,2306,-496,-74
149500,105,-710,-4183,2330,-486,-93
149502,116,-715,-4162,2359,-477,-107
149504,125,-685,-4181,2375,-470,-120
149506,159,-668,-4213,2400,-456,-129
149508,161,-705,-4136,2425,-436,-141
149510,186,-652,-4162,2448,-437,-156
149512,218,-695,-4172,2475,-442,-174
149514,202,-672,-4155,2496,-435,-170
149516,195,-621,-4155,2514,-439,-186
149518,221,-632,-4180,2525,-455,-184
149520,247,-594,-4146,2529,-478,-203
149522,309,-596,-4136,2546,-500,-226
149524,316,-597,-4109,2564,-511,-244
149526,331,-600,-4091,2581,-535,-278
149528,350,-576,-4113,2611,-558,-313
149530,329,-608,-4104,2627,-583,-332
149532,308,-602,-4110,2638,-595,-351
149534,333,-690,-4141,2634,-600,-377
149536,312,-786,-3968,2729,-641,-396
149538,322,-728,-3943,2820,-655,-408
149540,249,-613,-4046,2868,-640,-391
149542,231,-594,-4112,2847,-627,-347
149544,223,-591,-4109,2846,-599,-319
149546,229,-599,-4067,2832,-575,-283
149548,243,-554,-4079,2815,-542,-244
149550,268,-598,-4075,2779,-512,-216
149552,295,-568,-4114,2740,-474,-188
149554,291,-597,-4090,2706,-434,-160
149556,323,-570,-4105,2674,-392,-140
149558,323,-603,-4089,2627,-357,-134
149560,332,-602,-4098,2602,-334,-128
149562,338,-604,-4097,2570,-315,-136
149564,312,-630,-4074,2540,-302,-143
149566,302,-607,-4058,2518,-297,-147
149568,312,-678,-4024,2495,-281,-169
149570,284,-674,-4048,2491,-271,-186
149572,264,-722,-4000,2500,-267,-194
